39 1001
Wilson, Keith and Brassington, David
ACRU, Imperial College, Silwood Park, Ascot, Berks., UK
Formaldehyde Tunable Diode Laser Absorption Spectrometer, Mace Head
ACSOE OXICOA EASE 96
1 1
1996 7 29 1997 1 16
0
Time in Fractional Julian Day (GMT)
7
1 1 1.0 1.0 1 1.0 1
999 999 999 99999 999 99999 999
MONTH
DAY
TIME (hours)
FORMALDEHYDE (pptv) ; 6 minute average of 40 s data
N ; Number of 40 s data point contributing to average
STERROR (pptv) ; of the 6 minute average
ERROR FLAG
0
18
*******************************************************************************
NOTE THE MAIN HCHO DATA IS PRESENTED AS 1 HOUR AVERAGES IN FILE  mh960729.fm4. 
THE 6 MINUTE DATA IN THIS FILE IS NOT SIGNIFICANT WITHOUT FURTHER AVERAGING. 
IT IS PRESENTED FOR THOSE WISHING TO USE DIFFERENT AVERAGING TECHNIQUES FROM 
THE 1 HOUR BLOCK AVERAGES GIVEN IN MH960729.FM4.
*******************************************************************************
THIS-FILE-NAME=mh960729.fm5
THIS-FILE-VERSION=1
THIS-FILE-ENDS=1996 08 06
E-MAIL-CONTACT=k.m.wilson@ic.ac.uk
Alternative e-mail contact: d.brassington@ic.ac.uk
HCHO values are given as 6 minute averages of the 40 s raw data. 
N is the number of raw data points contributing to the average. (Always 9 in this file.)
The time stamp is the mid point of the 6 minute period.
The standard error is calculated as standard deviation of the 40 s data over the 6 minutes
divided by square root of N. It mainly reflects instrumental noise but will also include
any real variability of the HCHO concentration.
 Jday     Month  Day  Time   HCHOaverage  N   Standard-error-of-average Error-flag
 211.5054   07   29  12.129   1654.8994   9   1506.6755   0
 211.5100   07   29  12.239    346.4155   9   1193.1296   0
 211.5145   07   29  12.349   3418.6620   9   1332.5384   0
 211.5191   07   29  12.459   2653.9636   9   1496.7780   0
 211.5237   07   29  12.569   1457.8833   9   1234.9234   0
 211.5283   07   29  12.679   3704.5389   9    914.2986   0
 211.5329   07   29  12.789   1240.8647   9    748.7367   0
 211.5375   07   29  12.899    436.6923   9    526.3402   0
 211.5420   07   29  13.009   4176.4569   9   1550.5857   0
 211.5466   07   29  13.119   1593.6527   9   1157.7809   0
 211.5512   07   29  13.229   1139.9670   9   1274.9711   0
 211.5558   07   29  13.339    585.3837   9    539.7876   0
 211.5604   07   29  13.449   1443.8993   9    970.7545   0
 211.5650   07   29  13.559    162.4984   9    712.5163   0
 211.5695   07   29  13.669   1903.9574   9   1528.5294   0
 211.5741   07   29  13.779    550.3350   9   1143.5754   0
 211.5787   07   29  13.889   3366.9741   9    803.7493   0
 211.6944   07   29  16.666   1966.3559   9    628.8920   0
 211.6990   07   29  16.776   1880.4772   9    887.0537   0
 211.7036   07   29  16.886   1744.7599   9    994.2550   0
 211.7082   07   29  16.996    503.3278   9    780.3298   0
 211.7128   07   29  17.106    722.8644   9    944.2164   0
 211.7173   07   29  17.216    520.8331   9    459.7287   0
 211.7219   07   29  17.326   1234.4300   9    666.4314   0
 211.7265   07   29  17.436   1574.4440   9    912.5457   0
 211.7311   07   29  17.546   2738.4410   9   1279.6864   0
 211.7357   07   29  17.656   1424.1047   9    750.5086   0
 211.7403   07   29  17.766    815.3334   9    993.7610   0
 211.7448   07   29  17.876   1876.7702   9    400.8228   0
 211.7494   07   29  17.986    307.6807   9    689.8375   0
 211.7540   07   29  18.096   1143.1967   9   1001.1071   0
 211.7881   07   29  18.915   1029.8129   9    986.0334   0
 211.7927   07   29  19.025   1477.4009   9    674.3044   0
 211.7973   07   29  19.135  -1589.9870   9    783.5940   0
 211.8019   07   29  19.245   -426.5974   9    656.7712   0
 211.8065   07   29  19.355   -548.9367   9    771.6929   0
 211.8110   07   29  19.465   1051.8637   9    509.3778   0
 211.8156   07   29  19.575  -1012.8508   9    813.7175   0
 211.8202   07   29  19.685   -555.7216   9    608.2038   0
 211.8248   07   29  19.795   -653.8899   9    820.9443   0
 211.8294   07   29  19.905    362.1413   9    839.3832   0
 211.8340   07   29  20.015   1019.4236   9    664.3900   0
 211.8385   07   29  20.125   1143.0351   9    673.5911   0
 211.8431   07   29  20.235   -973.4139   9    701.8402   0
 211.8477   07   29  20.345    744.0011   9    544.1663   0
 211.8523   07   29  20.455   -263.9730   9   1274.6730   0
 211.8569   07   29  20.565   1246.7161   9    770.4379   0
 211.8615   07   29  20.675  -1151.7282   9   1108.6101   0
 211.8660   07   29  20.785   1996.2299   9    431.3369   0
 211.8706   07   29  20.895   -544.6962   9    662.6937   0
 211.8752   07   29  21.005   1693.0319   9    440.2583   0
 211.8798   07   29  21.115    940.9738   9    568.9847   0
 211.8844   07   29  21.225   1576.6294   9    551.0763   0
 211.8890   07   29  21.335   -114.0703   9    432.3996   0
 211.8935   07   29  21.445   1382.4131   9    524.8057   0
 211.8981   07   29  21.555    469.8508   9    672.3006   0
 211.9027   07   29  21.665    184.2511   9    374.4057   0
 211.9073   07   29  21.775    370.8344   9    746.5800   0
 211.9119   07   29  21.885   -531.1265   9    707.2443   0
 211.9165   07   29  21.995  -1567.9363   9    285.1102   0
 211.9210   07   29  22.105    -18.8704   9    628.0498   0
 211.9256   07   29  22.215    536.6392   9    806.1302   0
 211.9302   07   29  22.325   -638.6239   9   1054.5020   0
 211.9348   07   29  22.435   -133.5767   9    518.2540   0
 211.9394   07   29  22.545    350.2678   9    765.2027   0
 211.9440   07   29  22.655    450.9805   9    417.5278   0
 211.9485   07   29  22.765    856.3752   9    961.7269   0
 211.9531   07   29  22.875   1041.6864   9    500.3975   0
 211.9577   07   29  22.985    900.6888   9    452.8348   0
 211.9623   07   29  23.095    706.0484   9    534.7298   0
 211.9669   07   29  23.205    -85.2347   9    461.8328   0
 211.9715   07   29  23.315    928.4642   9    832.6748   0
 211.9760   07   29  23.425     32.0160   9    245.7602   0
 211.9806   07   29  23.535    210.3303   9    682.0949   0
 211.9852   07   29  23.645  -1292.7258   9    788.4791   0
 211.9898   07   29  23.755   1926.4732   9    519.4534   0
 211.9944   07   29  23.865    745.9094   9    464.2984   0
 211.9990   07   29  23.975   2255.1143   9    454.2411   0
 212.0035   07   30   0.085    309.1347   9    335.4480   0
 212.0081   07   30   0.195     57.4592   9    794.8887   0
 212.0127   07   30   0.305   -260.5806   9    391.8988   0
 212.0173   07   30   0.415   1259.0136   9    355.7051   0
 212.0219   07   30   0.525      9.5412   9    284.2710   0
 212.0265   07   30   0.635  -1132.6458   9    428.0837   0
 212.0310   07   30   0.745   -525.8258   9    355.9749   0
 212.0356   07   30   0.855    735.5201   9    606.6042   0
 212.0402   07   30   0.965   1032.9933   9    562.0304   0
 212.0448   07   30   1.075    270.5459   9    315.9874   0
 212.0494   07   30   1.185    347.9356   9    609.3154   0
 212.0540   07   30   1.295   -147.9945   9    316.1356   0
 212.0585   07   30   1.405   2171.9999   9    438.0506   0
 212.0631   07   30   1.515    711.7731   9    477.7793   0
 212.0677   07   30   1.625    497.4143   9    469.2348   0
 212.0723   07   30   1.735    581.8008   9    786.0588   0
 212.0769   07   30   1.845     -3.8165   9    320.9674   0
 212.0815   07   30   1.955    622.9340   9    650.0649   0
 212.0860   07   30   2.065    649.8614   9    604.1218   0
 212.0906   07   30   2.175   1419.0937   9    728.4116   0
 212.0952   07   30   2.285     22.6868   9    546.3637   0
 212.0998   07   30   2.395    247.2229   9    691.8129   0
 212.1044   07   30   2.505    102.8329   9    481.8186   0
 212.1090   07   30   2.615   1247.1401   9    455.1461   0
 212.1135   07   30   2.725    318.8879   9    287.7298   0
 212.1181   07   30   2.835    -92.4436   9    458.2134   0
 212.1227   07   30   2.945    818.4225   9    460.3482   0
 212.1273   07   30   3.055    305.3182   9    349.0992   0
 212.1319   07   30   3.165   1029.1768   9    316.8197   0
 212.1365   07   30   3.275    996.7368   9    466.0252   0
 212.1410   07   30   3.385    -28.8356   9    502.7007   0
 212.1456   07   30   3.495   -179.5865   9    386.7569   0
 212.1502   07   30   3.605    492.5377   9    579.1167   0
 212.1548   07   30   3.715    108.7696   9    704.8114   0
 212.1594   07   30   3.825    829.0238   9    459.4134   0
 212.1640   07   30   3.935    728.0991   9    495.1141   0
 212.1685   07   30   4.045   -312.7392   9    452.7902   0
 212.1731   07   30   4.155    216.9032   9    386.8517   0
 212.1777   07   30   4.265    772.2007   9    387.0313   0
 212.1823   07   30   4.375    696.9312   9    403.2338   0
 212.1869   07   30   4.485   2471.5934   9    550.5292   0
 212.1915   07   30   4.595   1560.7274   9    740.8146   0
 212.1960   07   30   4.705     67.2124   9    671.9227   0
 212.2006   07   30   4.815    574.8040   9    374.0552   0
 212.2052   07   30   4.925    226.2323   9    369.7675   0
 212.2098   07   30   5.035   -303.8340   9    650.7364   0
 212.2144   07   30   5.145   1149.3959   9    437.3674   0
 212.2190   07   30   5.255   1760.4564   9    428.9357   0
 212.2235   07   30   5.365   -168.5611   9    606.0620   0
 212.2281   07   30   5.475   1170.3865   9    418.2493   0
 212.2327   07   30   5.585    719.4061   9    568.7869   0
 212.2373   07   30   5.695    975.7461   9    357.2758   0
 212.2419   07   30   5.805      5.3007   9    478.0594   0
 212.2465   07   30   5.915    727.6751   9    471.0950   0
 212.2510   07   30   6.025    544.4842   9    255.6259   0
 212.2556   07   30   6.135    666.1874   9    845.7243   0
 212.2602   07   30   6.245   -506.3194   9    363.5562   0
 212.2648   07   30   6.355    219.8715   9    529.4426   0
 212.2694   07   30   6.465  -1230.6021   9    902.8519   0
 212.2740   07   30   6.575   -265.0332   9    528.0777   0
 212.2785   07   30   6.685   -832.2042   9    654.3935   0
 212.2831   07   30   6.795   -918.4990   9    552.3826   0
 212.2877   07   30   6.905   -614.6649   9    644.7257   0
 212.2923   07   30   7.015   -966.4170   9    709.4623   0
 212.2969   07   30   7.125   -676.7887   9    417.0773   0
 212.3015   07   30   7.235    526.8860   9    678.2254   0
 212.3060   07   30   7.345   -117.0387   9    597.1597   0
 212.3106   07   30   7.455   1672.4654   9    583.8864   0
 212.3152   07   30   7.565   1238.6591   9    712.4287   0
 212.3198   07   30   7.675   -126.5798   9    445.5746   0
 212.3244   07   30   7.785    762.6595   9    763.0898   0
 212.3290   07   30   7.895    400.3061   9    448.6662   0
 212.3335   07   30   8.005    -71.2409   9    441.9269   0
 212.3381   07   30   8.115   -592.1901   9    547.4299   0
 212.3427   07   30   8.225   -470.9110   9    573.2957   0
 212.3473   07   30   8.335  -2077.6481   9    431.6091   0
 212.3519   07   30   8.445    795.9476   9    545.5162   0
 212.3565   07   30   8.555   1185.2284   9    411.8700   0
 212.4234   07   30  10.161    906.1592   9    804.1837   0
 212.4280   07   30  10.271    575.7405   9    544.2814   0
 212.4325   07   30  10.381   -233.6514   9    234.7631   0
 212.4371   07   30  10.491     25.2859   9    756.0511   0
 212.4417   07   30  10.601  -1309.5179   9    703.5664   0
 212.4463   07   30  10.711   -908.1042   9    548.1646   0
 212.4509   07   30  10.821    798.2078   9    567.9353   0
 212.4555   07   30  10.931   -133.7235   9    909.3719   0
 212.5169   07   30  12.406    -80.8994   9   1082.0885   0
 212.5215   07   30  12.516  -1368.3410   9   1301.7371   0
 212.5261   07   30  12.626    290.8407   9   1025.0065   0
 212.5307   07   30  12.736   1050.6993   9    726.9906   0
 212.5353   07   30  12.846   -568.2809   9    961.8277   0
 212.5398   07   30  12.956   1603.3462   9    766.0279   0
 212.5444   07   30  13.066    609.7232   9    699.6262   0
 212.5490   07   30  13.176   -952.9252   9    843.1315   0
 212.5536   07   30  13.286  -2142.3445   9    679.6247   0
 212.5582   07   30  13.396   -893.1192   9    501.1729   0
 212.5628   07   30  13.506  -1161.6257   9    655.0512   0
 212.5673   07   30  13.616     21.3416   9    803.3595   0
 212.5719   07   30  13.726   -224.0863   9    512.3662   0
 212.5765   07   30  13.836   -563.3177   9    452.7857   0
 212.5811   07   30  13.946   1503.3387   9    823.5485   0
 212.5857   07   30  14.056   -483.4110   9    697.8051   0
 212.5903   07   30  14.166    849.1953   9    681.1259   0
 212.5948   07   30  14.276   -964.8367   9    405.8334   0
 212.5994   07   30  14.386    336.7499   9    691.5405   0
 212.6040   07   30  14.496    672.0108   9    546.7095   0
 212.6086   07   30  14.606    769.2885   9    322.2056   0
 212.6132   07   30  14.716   1524.9284   9    694.8693   0
 212.6178   07   30  14.826   1492.9161   9    408.2600   0
 212.6223   07   30  14.936   1392.1641   9    519.6059   0
 212.6269   07   30  15.046    967.3183   9    680.9203   0
 212.6315   07   30  15.156   2555.2788   9    869.3373   0
 212.6361   07   30  15.266    282.6515   9    595.9013   0
 212.6407   07   30  15.376   1053.9253   9    643.7495   0
 212.6453   07   30  15.486    581.4332   9    362.9234   0
 212.6498   07   30  15.596   -783.9298   9    969.4339   0
 212.6544   07   30  15.706   1232.3506   9   1027.2462   0
 212.6590   07   30  15.816   1522.9432   9    673.5991   0
 212.6636   07   30  15.926    680.2000   9    475.6287   0
 212.6682   07   30  16.036   2264.4381   9    744.5101   0
 212.6728   07   30  16.146      0.9926   9    449.5959   0
 212.6773   07   30  16.256    379.6811   9    530.3039   0
 212.7013   07   30  16.830   -369.0210   9    541.8978   0
 212.7058   07   30  16.940   -886.7275   9    421.5639   0
 212.7104   07   30  17.050   -610.4301   9    858.4553   0
 212.7150   07   30  17.160   1237.4848   9    811.0148   0
 212.7196   07   30  17.270    239.0675   9    579.3837   0
 212.7242   07   30  17.380   2029.3814   9    804.3141   0
 212.7288   07   30  17.490    921.1476   9    352.2081   0
 212.7333   07   30  17.600    157.1149   9    247.4219   0
 212.7379   07   30  17.710   1298.8322   9   1175.9565   0
 212.7425   07   30  17.820    781.1257   9    416.2140   0
 212.7471   07   30  17.930    845.7512   9    794.7567   0
 212.7517   07   30  18.040   1639.0527   9    602.4092   0
 212.7691   07   30  18.458    877.3615   9    623.2238   0
 212.7803   07   30  18.727    363.8825   9    581.7666   0
 212.7849   07   30  18.837   -115.0060   9    453.9447   0
 212.7895   07   30  18.947   1337.1149   9    387.5808   0
 212.7940   07   30  19.057   1950.7831   9    577.6560   0
 212.7986   07   30  19.167   3129.4807   9    667.4885   0
 212.8032   07   30  19.277   1284.3849   9    443.7111   0
 212.8078   07   30  19.387    148.4168   9    367.1354   0
 212.8124   07   30  19.497   -260.6954   9    399.4040   0
 212.8170   07   30  19.607    -49.0935   9    625.1444   0
 212.8215   07   30  19.717    567.9840   9    454.9540   0
 212.8261   07   30  19.827     -0.6819   9    378.4808   0
 212.8307   07   30  19.937   1625.9935   9    671.3282   0
 212.8353   07   30  20.047   2145.5659   9    481.3967   0
 212.8399   07   30  20.157    602.7586   9    427.0029   0
 212.8445   07   30  20.267   1430.0742   9    610.2672   0
 212.8490   07   30  20.377   1477.5767   9    504.6617   0
 212.8536   07   30  20.487    775.0402   9    529.9288   0
 212.8582   07   30  20.597    708.9004   9    470.9926   0
 212.8628   07   30  20.707   1027.5533   9    547.2671   0
 212.8674   07   30  20.817    938.0032   9    360.9182   0
 212.8720   07   30  20.927    969.1412   9    536.9941   0
 212.8765   07   30  21.037    470.4790   9    689.6405   0
 212.8811   07   30  21.147     54.0937   9    310.7108   0
 212.8857   07   30  21.257   -945.2763   9    443.5061   0
 212.8903   07   30  21.367   -148.4168   9    478.8251   0
 212.8949   07   30  21.477    276.1507   9    439.2050   0
 212.8995   07   30  21.587   1201.4260   9    371.1010   0
 212.9040   07   30  21.697   -577.5300   9    417.3568   0
 212.9086   07   30  21.807    727.7651   9    477.8309   0
 212.9132   07   30  21.917   1310.7499   9    354.9344   0
 212.9178   07   30  22.027   1322.5687   9    490.1596   0
 212.9224   07   30  22.137   1217.5632   9    429.9852   0
 212.9270   07   30  22.247    983.9147   9    446.5896   0
 212.9315   07   30  22.357      7.7277   9    545.4702   0
 212.9361   07   30  22.467    673.6713   9    580.0863   0
 212.9407   07   30  22.577   -713.4461   9    431.0376   0
 212.9453   07   30  22.687   -426.6131   9    443.3822   0
 212.9499   07   30  22.797    231.1484   9    368.1763   0
 212.9545   07   30  22.907    568.2113   9    434.7423   0
 212.9590   07   30  23.017   -392.2931   9    374.4200   0
 212.9636   07   30  23.127   -114.0968   9    273.3886   0
 212.9682   07   30  23.237    304.5613   9    299.9091   0
 212.9728   07   30  23.347   -122.5064   9    440.3669   0
 212.9774   07   30  23.457   -236.8305   9    424.1485   0
 212.9820   07   30  23.567    515.7086   9    519.6640   0
 212.9865   07   30  23.677    462.7513   9    411.2603   0
 212.9911   07   30  23.787    712.9916   9    562.8660   0
 212.9957   07   30  23.897   -267.9685   9    488.1068   0
 213.0003   07   31   0.007   -950.0493   9    405.2706   0
 213.0049   07   31   0.117     56.8211   9    599.3303   0
 213.0095   07   31   0.227    514.5722   9    342.8697   0
 213.0140   07   31   0.337   -197.0557   9    491.8535   0
 213.0186   07   31   0.447   1418.0282   9    437.3381   0
 213.0232   07   31   0.557    377.7469   9    779.0664   0
 213.0278   07   31   0.667   1728.2715   9    544.3141   0
 213.0324   07   31   0.777   -732.3107   9    687.2118   0
 213.0370   07   31   0.887   1394.6179   9    570.0017   0
 213.0415   07   31   0.997   1196.6530   9    554.5342   0
 213.0461   07   31   1.107    386.6110   9    363.9058   0
 213.0507   07   31   1.217   1117.5580   9    430.0006   0
 213.0553   07   31   1.327    -62.7305   9    605.3881   0
 213.0599   07   31   1.437   -280.2418   9    254.5931   0
 213.0645   07   31   1.547   -253.1950   9    645.8607   0
 213.0690   07   31   1.657   1108.4666   9    608.1586   0
 213.0736   07   31   1.767    817.0879   9    580.4206   0
 213.0782   07   31   1.877   1068.4646   9    313.7292   0
 213.0828   07   31   1.987   -151.5988   9    697.2212   0
 213.0874   07   31   2.097   1474.8493   9    493.6453   0
 213.0920   07   31   2.207    -56.5938   9    570.9746   0
 213.0965   07   31   2.317   1696.2244   9    358.0655   0
 213.1011   07   31   2.427    959.1407   9    418.2347   0
 213.1057   07   31   2.537    375.0195   9    575.1077   0
 213.1103   07   31   2.647    420.7037   9    414.2771   0
 213.1149   07   31   2.757    -15.0008   9    621.7259   0
 213.1195   07   31   2.867   1317.7957   9    578.7767   0
 213.1240   07   31   2.977    672.7622   9    451.0927   0
 213.1286   07   31   3.087   1066.8736   9    527.8831   0
 213.1332   07   31   3.197    719.5828   9    534.1351   0
 213.1378   07   31   3.307   1042.5541   9    374.6824   0
 213.1424   07   31   3.417    902.3196   9    392.5259   0
 213.1470   07   31   3.527   1258.0199   9    305.4752   0
 213.1515   07   31   3.637   2041.0151   9    572.9473   0
 213.1561   07   31   3.747   1421.8920   9    347.8231   0
 213.1607   07   31   3.857   -245.0127   9    466.7510   0
 213.1653   07   31   3.967     46.3660   9    472.3671   0
 213.1699   07   31   4.077    756.4029   9    600.9750   0
 213.1745   07   31   4.187    484.7979   9    429.2429   0
 213.1790   07   31   4.297   -648.4428   9    623.7261   0
 213.1836   07   31   4.407    689.8085   9    462.6660   0
 213.1882   07   31   4.517    404.5665   9    639.8450   0
 213.1928   07   31   4.627    172.9635   9    686.2929   0
 213.1974   07   31   4.737  -1055.2821   9    679.8051   0
 213.2020   07   31   4.847    492.9801   9    757.3578   0
 213.2065   07   31   4.957   -774.1311   9    584.1536   0
 213.2111   07   31   5.067   -414.5670   9    686.7150   0
 213.2157   07   31   5.177   -326.3806   9    611.2417   0
 213.2203   07   31   5.287   -738.4474   9    468.0151   0
 213.2249   07   31   5.397   -174.3272   9    514.3331   0
 213.2295   07   31   5.507   1352.1157   9   1009.6649   0
 213.2340   07   31   5.617   2225.5701   9    624.5576   0
 213.2386   07   31   5.727     18.6373   9    340.9504   0
 213.2432   07   31   5.837   1171.1972   9    808.2427   0
 213.2478   07   31   5.947   1255.9743   9    632.5318   0
 213.2524   07   31   6.057   2349.4402   9    377.6076   0
 213.2570   07   31   6.167    188.1916   9    759.6493   0
 213.2615   07   31   6.277    299.1064   9    537.0488   0
 213.2661   07   31   6.387    546.1647   9    615.2124   0
 213.2707   07   31   6.497     71.8219   9    579.2526   0
 213.2753   07   31   6.607    391.6112   9    418.4223   0
 213.2799   07   31   6.717   1234.3823   9    696.5173   0
 213.2845   07   31   6.827      6.3640   9    499.1681   0
 213.2890   07   31   6.937   -395.2478   9    735.0839   0
 213.2936   07   31   7.047    580.7120   9    622.9505   0
 213.2982   07   31   7.157    636.6240   9    443.7371   0
 213.3028   07   31   7.267   -235.9213   9    921.0081   0
 213.3074   07   31   7.377    255.2405   9   1323.9206   0
 213.3120   07   31   7.487    771.1764   9   1376.0953   0
 213.3165   07   31   7.597  -1557.3536   9   1483.9647   0
 213.3211   07   31   7.707   -789.3592   9    820.5367   0
 213.3257   07   31   7.817  -1149.6051   9    800.6578   0
 213.3303   07   31   7.927    571.1660   9    975.4644   0
 213.3349   07   31   8.037   -648.4428   9    709.6769   0
 213.3395   07   31   8.147    500.9351   9   1035.5208   0
 213.3440   07   31   8.257   -212.5110   9    671.9176   0
 213.3486   07   31   8.367   1402.8001   9   1215.4526   0
 213.3532   07   31   8.477   2124.6558   9   1098.4875   0
 213.3578   07   31   8.587   -739.5839   9    765.3890   0
 213.4829   07   31  11.590   8602.9074   9    517.0559   0
 213.4875   07   31  11.700   9255.9629   9    637.2980   0
 213.4947   07   31  11.872      2.2576   9    304.2591   0
 213.4993   07   31  11.982   -146.3320   9    676.6833   0
 213.5038   07   31  12.092    808.5204   9    624.6218   0
 213.5232   07   31  12.557   8694.9345   9    392.6860   0
 213.5278   07   31  12.667   8216.8222   9    397.6437   0
 213.5325   07   31  12.781   8950.6730   9    598.7291   0
 213.5412   07   31  12.989   8742.8327   9    469.3073   0
 213.6171   07   31  14.811   -338.5153   9    350.1291   0
 213.6217   07   31  14.921    637.3729   9    485.0606   0
 213.6263   07   31  15.031    970.5746   9    672.5467   0
 213.6309   07   31  15.141   -123.8976   9    639.4151   0
 213.6355   07   31  15.251    556.7617   9    579.5214   0
 213.6400   07   31  15.361   -501.0337   9    624.9713   0
 213.6446   07   31  15.471    751.9393   9    520.0120   0
 213.6492   07   31  15.581   -884.9090   9    893.2220   0
 213.6538   07   31  15.691   -648.0001   9    829.9423   0
 213.6584   07   31  15.801    895.4066   9    814.1213   0
 213.6630   07   31  15.911   1796.5155   9    792.0122   0
 213.6675   07   31  16.021    930.1394   9    626.4412   0
 213.6721   07   31  16.131   1337.7314   9    693.9501   0
 213.6767   07   31  16.241    439.7329   9    972.7736   0
 213.6813   07   31  16.351   -378.5617   9    929.8224   0
 213.6859   07   31  16.461  -1283.4290   9    725.4979   0
 213.6905   07   31  16.571    -47.5632   9    587.5416   0
 213.6950   07   31  16.681  -1482.6243   9    584.5921   0
 213.6996   07   31  16.791    355.2337   9    574.3181   0
 213.7042   07   31  16.901   1605.2259   9    851.5158   0
 213.7412   07   31  17.790    304.0775   9    585.7300   0
 213.7458   07   31  17.900   1356.9822   9    496.8599   0
 213.7504   07   31  18.010   -709.1014   9    394.3740   0
 213.7550   07   31  18.120     93.0689   9    462.0694   0
 213.7596   07   31  18.230   -437.0973   9    734.2364   0
 213.7642   07   31  18.340   -922.4733   9   1036.0951   0
 213.7688   07   31  18.450    687.1565   9    644.3283   0
 213.7733   07   31  18.560    696.8348   9    537.9839   0
 213.7779   07   31  18.670   -151.2510   9    414.0328   0
 213.7825   07   31  18.780   -476.2605   9    416.7942   0
 213.7871   07   31  18.890   -664.6490   9    366.1597   0
 213.7917   07   31  19.000   -291.2481   9    406.2048   0
 213.7962   07   31  19.110  -1178.9472   9    753.5387   0
 213.8008   07   31  19.220   1133.8195   9    407.8858   0
 213.8054   07   31  19.330    845.8350   9    299.8475   0
 213.8100   07   31  19.440    680.6293   9    590.5644   0
 213.8146   07   31  19.550    632.5756   9    787.6204   0
 213.8192   07   31  19.660    367.5488   9    460.7228   0
 213.8238   07   31  19.770    819.1635   9    789.1613   0
 213.8283   07   31  19.880   -915.8336   9    902.7344   0
 213.8329   07   31  19.990     68.4231   9    438.1504   0
 213.8375   07   31  20.100    201.4429   9    291.6391   0
 213.8421   07   31  20.210    952.2959   9    264.1181   0
 213.8467   07   31  20.320    171.3953   9    449.7028   0
 213.8513   07   31  20.430    892.6508   9    398.6013   0
 213.8558   07   31  20.540    347.8547   9    705.9278   0
 213.8604   07   31  20.650   -737.7986   9    602.8511   0
 213.8650   07   31  20.760    387.8057   9    610.2101   0
 213.8696   07   31  20.870    380.4907   9    449.2208   0
 213.8742   07   31  20.980   -148.3250   9    501.2708   0
 213.8788   07   31  21.090   1486.4008   9    406.5321   0
 213.8833   07   31  21.200    653.9579   9    413.4131   0
 213.8879   07   31  21.310   1347.4165   9    386.0667   0
 213.8925   07   31  21.420    198.6294   9    287.6687   0
 213.8971   07   31  21.530   1563.4893   9    522.9120   0
 213.9017   07   31  21.640    855.6258   9    770.4408   0
 213.9063   07   31  21.750    -96.4450   9    612.3386   0
 213.9108   07   31  21.860    222.8251   9    617.9866   0
 213.9154   07   31  21.970     79.3392   9    772.2260   0
 213.9200   07   31  22.080  -1233.6407   9   1118.9838   0
 213.9246   07   31  22.190   1051.2167   9    557.3342   0
 213.9292   07   31  22.300    181.7487   9    243.1408   0
 213.9338   07   31  22.410    119.8529   9    509.4582   0
 213.9383   07   31  22.520   1077.2130   9    469.5238   0
 213.9429   07   31  22.630    323.7716   9    496.7118   0
 213.9475   07   31  22.740    594.6504   9    327.5326   0
 213.9521   07   31  22.850    666.7872   9    362.7756   0
 213.9567   07   31  22.960    -27.6843   9    606.3656   0
 213.9613   07   31  23.070    309.0291   9    552.5520   0
 213.9658   07   31  23.180   -787.2027   9    455.4837   0
 213.9704   07   31  23.290   -587.8981   9    549.0295   0
 213.9750   07   31  23.400   -245.6703   9    309.6246   0
 213.9796   07   31  23.510   1257.9489   9    419.6262   0
 213.9842   07   31  23.620   1301.9512   9    284.2245   0
 213.9888   07   31  23.730   -174.9965   9    319.4538   0
 213.9933   07   31  23.840    732.7344   9    457.9104   0
 213.9979   07   31  23.950    791.7043   9    483.3028   0
 214.0025   08   01   0.060   1076.4252   9    370.1198   0
 214.0071   08   01   0.170    530.1661   9    558.9202   0
 214.0117   08   01   0.280    221.2496   9    452.3970   0
 214.0163   08   01   0.390   -258.3871   9    457.8613   0
 214.0208   08   01   0.500   -170.1573   9    825.7416   0
 214.0254   08   01   0.610   1919.3342   9    646.3417   0
 214.0300   08   01   0.720   1309.4912   9    903.4792   0
 214.0346   08   01   0.830   1555.7242   9    431.8062   0
 214.0392   08   01   0.940   -343.2407   9    857.4090   0
 214.0438   08   01   1.050   -180.3983   9    731.5185   0
 214.0483   08   01   1.160    497.8678   9    658.5988   0
 214.0529   08   01   1.270   -186.7004   9    791.1327   0
 214.0575   08   01   1.380   1133.5945   9    509.9671   0
 214.0621   08   01   1.490    842.3463   9    599.0921   0
 214.0667   08   01   1.600   -374.0760   9    777.6153   0
 214.0713   08   01   1.710   -970.1894   9    754.3690   0
 214.0758   08   01   1.820   1307.1279   9    657.3962   0
 214.0804   08   01   1.930   -632.2380   9   1624.2405   0
 214.0850   08   01   2.040    593.8626   9   1044.8900   0
 214.0896   08   01   2.150    789.9037   9   1078.9267   0
 214.0942   08   01   2.260   2740.6360   9    543.7474   0
 214.0988   08   01   2.370  -2423.5041   9   1416.0188   0
 214.1033   08   01   2.480   4807.9575   9   1483.1324   0
 214.1079   08   01   2.590  -1188.0628   9   1093.8171   0
 214.1125   08   01   2.700   4243.6924   9   1740.5407   0
 214.1171   08   01   2.810   2333.0236   9   1433.2874   0
 214.1217   08   01   2.920    -95.7698   9   1497.8836   0
 214.1263   08   01   3.030   1334.2496   9    776.1632   0
 214.1308   08   01   3.140     68.8732   9   1114.3476   0
 214.1354   08   01   3.250   2772.3717   9   2034.3767   0
 214.1400   08   01   3.360   4756.1901   9   1171.2748   0
 214.1446   08   01   3.470    447.3382   9   2077.5699   0
 214.1492   08   01   3.580   2562.4884   9   1587.6886   0
 214.1538   08   01   3.690   -101.1716   9   1921.0757   0
 214.1583   08   01   3.800   1049.1910   9   2619.4032   0
 214.1629   08   01   3.910   1460.4046   9   1570.3786   0
 214.1675   08   01   4.020   4198.3396   9   1941.7682   0
 214.1721   08   01   4.130   2891.3242   9   1553.0619   0
 214.1767   08   01   4.240      0.9003   9   1443.6102   0
 214.1813   08   01   4.350   1157.9027   9   1306.8538   0
 214.1858   08   01   4.460   2365.4345   9   1538.1963   0
 214.1904   08   01   4.570   -174.3212   9   1135.1864   0
 214.1950   08   01   4.680  -1293.5108   9   1133.0341   0
 214.1996   08   01   4.790    575.9691   9   1347.1765   0
 214.2042   08   01   4.900  -2227.0129   9   1488.9094   0
 214.2088   08   01   5.010   -708.7638   9   1636.1586   0
 214.2133   08   01   5.120   1592.8617   9   1725.8915   0
 214.2179   08   01   5.230   2482.8116   9   1094.2211   0
 214.2225   08   01   5.340   -139.6596   9   1096.8273   0
 214.2271   08   01   5.450    -42.7644   9   1295.7298   0
 214.2317   08   01   5.560  -2347.2034   9   1169.2673   0
 214.2363   08   01   5.670   1045.8149   9    923.6213   0
 214.2408   08   01   5.780   -695.8220   9    719.7123   0
 214.2454   08   01   5.890    503.8323   9   1786.1707   0
 214.2500   08   01   6.000   -370.4748   9    657.8098   0
 214.2546   08   01   6.110   1935.7648   9    906.9335   0
 214.2592   08   01   6.220    958.1478   9    991.9605   0
 214.2638   08   01   6.330    316.7942   9    668.0825   0
 214.2683   08   01   6.440   -107.4737   9   1015.8767   0
 214.2729   08   01   6.550   -627.8491   9    881.9133   0
 214.2775   08   01   6.660    883.8728   9    941.4603   0
 214.2821   08   01   6.770    653.1701   9   1215.9291   0
 214.2867   08   01   6.880    835.7066   9   1324.9000   0
 214.2913   08   01   6.990   3467.5184   9   1051.3883   0
 214.2958   08   01   7.100   -926.4122   9   1017.9450   0
 214.3004   08   01   7.210    -23.4079   9    823.9402   0
 214.3050   08   01   7.320    388.4809   9    877.1312   0
 214.3096   08   01   7.430   1018.9183   9    872.3602   0
 214.3142   08   01   7.540   1749.5145   9    925.1976   0
 214.3188   08   01   7.650  -1015.7673   9   1184.3526   0
 214.3233   08   01   7.760    295.0744   9   1224.4509   0
 214.3279   08   01   7.870  -2317.8310   9   1360.0477   0
 214.3325   08   01   7.980    210.1083   9   1039.7393   0
 214.3371   08   01   8.090    378.9152   9    865.9497   0
 214.3417   08   01   8.200    733.1845   9   1259.2279   0
 214.3463   08   01   8.310   -635.8392   9    845.5832   0
 214.3508   08   01   8.420   -737.7986   9    941.3057   0
 214.3651   08   01   8.762  -1317.7195   9   5261.7467   0
 214.3697   08   01   8.872   -463.8507   9   2690.5796   0
 214.3743   08   01   8.982  -1553.7157   9   2230.4308   0
 214.3788   08   01   9.092   1659.1109   9   3591.0682   0
 214.4252   08   01  10.204    -18.4150   9    459.7214   0
 214.4298   08   01  10.314    983.3410   9    438.4375   0
 214.4343   08   01  10.424    640.6855   9    276.4005   0
 214.4389   08   01  10.534    545.5599   9    615.7101   0
 214.4435   08   01  10.644    401.0639   9    587.6935   0
 214.4481   08   01  10.754    509.0688   9    305.8430   0
 214.4527   08   01  10.864      6.4396   9    459.1168   0
 214.4572   08   01  10.974    326.4999   9    356.1404   0
 214.4618   08   01  11.084    746.8827   9    470.1882   0
 214.4664   08   01  11.194   -171.8361   9    434.3038   0
 214.4710   08   01  11.304    514.9435   9    302.5741   0
 214.4756   08   01  11.414   1388.4721   9    474.5931   0
 214.4802   08   01  11.524    202.1136   9    558.6435   0
 214.4848   08   01  11.634   -571.7703   9    691.5270   0
 214.4893   08   01  11.744   -550.9828   9    424.4841   0
 214.4939   08   01  11.854   -365.3636   9    557.6948   0
 214.4985   08   01  11.964     68.0114   9    665.3205   0
 214.5031   08   01  12.074   -156.0195   9    599.3201   0
 214.5077   08   01  12.184   -459.2465   9    356.9029   0
 214.5123   08   01  12.294   -621.2537   9    556.2634   0
 214.5168   08   01  12.404   -533.2456   9    492.6093   0
 214.5214   08   01  12.514    432.5842   9    762.3428   0
 214.5260   08   01  12.624   -741.3469   9    511.0145   0
 214.5306   08   01  12.734   -340.9608   9    202.3822   0
 214.5352   08   01  12.844   -838.2801   9    671.9197   0
 214.5398   08   01  12.954    536.7478   9    457.8369   0
 214.5443   08   01  13.064   -333.7304   9    375.5654   0
 214.5489   08   01  13.174   -656.5021   9    443.5841   0
 214.5535   08   01  13.284     34.5706   9    572.4785   0
 214.5695   08   01  13.669     73.4342   9    448.9547   0
 214.5741   08   01  13.779   -590.7502   9    555.1965   0
 214.5787   08   01  13.889    784.6167   9    523.5377   0
 214.5833   08   01  13.999    888.4414   9    290.0802   0
 214.5879   08   01  14.109    874.4324   9    265.0435   0
 214.5925   08   01  14.219    280.4058   9    560.7962   0
 214.5970   08   01  14.329    598.2066   9    425.8373   0
 214.6016   08   01  14.439    397.6747   9    819.5541   0
 214.6062   08   01  14.549   1283.0657   9    540.2975   0
 214.6108   08   01  14.659    861.2142   9    344.6731   0
 214.6154   08   01  14.769   1318.7660   9    692.2872   0
 214.6200   08   01  14.879    411.3447   9    455.3954   0
 214.6245   08   01  14.989   1014.0704   9    452.0100   0
 214.6291   08   01  15.099   1122.6401   9    572.1749   0
 214.6337   08   01  15.209    505.2276   9    541.0177   0
 214.6383   08   01  15.319   1284.8733   9    470.1167   0
 214.6429   08   01  15.429   1834.8393   9    232.0443   0
 214.6475   08   01  15.539   1392.7652   9    442.7187   0
 214.6520   08   01  15.649   1591.1506   9    266.3597   0
 214.6566   08   01  15.759   1505.9669   9    321.9916   0
 214.6612   08   01  15.869    589.1686   9    371.7948   0
 214.6658   08   01  15.979   1386.6645   9    457.8602   0
 214.6704   08   01  16.089   1549.4625   9    360.9130   0
 214.6750   08   01  16.199   1020.9619   9    261.6339   0
 214.6795   08   01  16.309   1615.4404   9    391.3896   0
 214.6841   08   01  16.419   1274.1406   9    554.7921   0
 214.6887   08   01  16.529   1101.1747   9    511.8873   0
 214.6933   08   01  16.639   1159.2443   9    734.5749   0
 214.6979   08   01  16.749    932.2760   9    372.1332   0
 214.7025   08   01  16.859   1448.2363   9    499.7341   0
 214.7070   08   01  16.969    877.3697   9    567.0171   0
 214.7116   08   01  17.079   1152.3527   9    202.8573   0
 214.7162   08   01  17.189   1635.4371   9    531.6608   0
 214.7208   08   01  17.299   1017.9116   9    338.9562   0
 214.7254   08   01  17.409   1131.5652   9    245.7283   0
 214.7300   08   01  17.519   1848.7353   9    419.4917   0
 214.7345   08   01  17.629   1392.3133   9    575.3880   0
 214.7391   08   01  17.739    730.6142   9    395.3659   0
 214.7437   08   01  17.849   1480.0954   9    427.1726   0
 214.7483   08   01  17.959   1056.5493   9    882.0833   0
 214.7529   08   01  18.069   1520.9927   9    819.0504   0
 214.7575   08   01  18.179    502.6292   9    462.6795   0
 214.7620   08   01  18.289   1057.2272   9    794.0110   0
 214.7666   08   01  18.399   2499.4757   9    830.2710   0
 214.7712   08   01  18.509    938.0377   9    467.8387   0
 214.7758   08   01  18.619   2281.8844   9    524.8415   0
 214.7804   08   01  18.729   1871.8954   9    499.5811   0
 214.7850   08   01  18.839   1323.0591   9    548.4761   0
 214.7895   08   01  18.949   2085.3066   9    702.4845   0
 214.7941   08   01  19.059    436.8773   9    663.8331   0
 214.7987   08   01  19.169   1679.9495   9    562.6423   0
 214.8668   08   01  20.804   -898.4860   9   1062.6715   0
 214.8714   08   01  20.914    674.8783   9    471.5433   0
 214.8760   08   01  21.024    328.4836   9    606.1670   0
 214.8806   08   01  21.134   -331.1872   9    342.4771   0
 214.8852   08   01  21.244   -310.1218   9    410.7733   0
 214.8898   08   01  21.354    279.4814   9    621.9674   0
 214.8943   08   01  21.464    727.3726   9    560.5398   0
 214.8989   08   01  21.574    652.5739   9    788.2553   0
 214.9035   08   01  21.684   1267.5231   9    469.4197   0
 214.9081   08   01  21.794    215.8349   9    589.3969   0
 214.9127   08   01  21.904    627.4532   9    583.6273   0
 214.9173   08   01  22.014    280.4952   9    430.6475   0
 214.9218   08   01  22.124   1405.8557   9    443.0690   0
 214.9264   08   01  22.234    364.1932   9    375.4512   0
 214.9310   08   01  22.344    173.9296   9    309.5215   0
 214.9356   08   01  22.454    296.9420   9    309.8762   0
 214.9402   08   01  22.564    491.0356   9    259.7267   0
 214.9448   08   01  22.674    505.3420   9    495.9992   0
 214.9493   08   01  22.784    -84.5992   9    213.1048   0
 214.9539   08   01  22.894    453.4110   9    389.5107   0
 214.9585   08   01  23.004   1080.4136   9    249.0520   0
 214.9631   08   01  23.114   -476.0534   9    412.0764   0
 214.9677   08   01  23.224     58.1267   9    291.3286   0
 214.9722   08   01  23.334     91.6960   9    393.6293   0
 214.9768   08   01  23.444    775.6989   9    407.9488   0
 214.9814   08   01  23.554    811.5212   9    299.6161   0
 214.9860   08   01  23.664    772.9953   9    365.5827   0
 214.9906   08   01  23.774   -145.2042   9    354.5017   0
 214.9952   08   01  23.884    348.6477   9    514.2853   0
 214.9998   08   01  23.994    157.5955   9    246.1316   0
 215.0043   08   02   0.104    100.7079   9    257.1889   0
 215.0089   08   02   0.214    362.5035   9    417.9908   0
 215.0135   08   02   0.324    636.2398   9    689.3704   0
 215.0181   08   02   0.434   -455.8893   9    396.1145   0
 215.0227   08   02   0.544    298.0684   9    280.0962   0
 215.0272   08   02   0.654    264.4991   9    500.1169   0
 215.0318   08   02   0.764   -858.8336   9    241.3665   0
 215.0364   08   02   0.874    353.0410   9    122.4893   0
 215.0410   08   02   0.984    445.1876   9    202.5310   0
 215.0456   08   02   1.094     -9.0119   9    310.1967   0
 215.0502   08   02   1.204   -246.4753   9    311.6436   0
 215.0548   08   02   1.314    128.4195   9    155.8690   0
 215.0593   08   02   1.424    783.1337   9    431.7489   0
 215.0639   08   02   1.534    566.2850   9    252.1418   0
 215.0685   08   02   1.644    325.5547   9    221.3954   0
 215.0731   08   02   1.754    197.3605   9    288.5927   0
 215.0777   08   02   1.864    695.0424   9    215.0919   0
 215.0822   08   02   1.974    424.1223   9    375.5025   0
 215.0868   08   02   2.084    452.3971   9    367.1463   0
 215.0914   08   02   2.194    165.3683   9    299.4462   0
 215.0960   08   02   2.304   -261.7956   9    195.3104   0
 215.1006   08   02   2.414    414.7725   9    468.2003   0
 215.1052   08   02   2.524   -440.1184   9    341.2958   0
 215.1098   08   02   2.634   -264.0485   9    487.4347   0
 215.1143   08   02   2.744    235.5484   9    902.0308   0
 215.1189   08   02   2.854    307.6436   9    360.9499   0
 215.1235   08   02   2.964    326.2306   9    891.1611   0
 215.1281   08   02   3.074    361.8276   9    787.1136   0
 215.1327   08   02   3.184    643.6746   9    772.7376   0
 215.1373   08   02   3.294    175.8446   9    531.5849   0
 215.1418   08   02   3.404    864.5787   9    380.1387   0
 215.1464   08   02   3.514    892.5156   9    546.1618   0
 215.1510   08   02   3.624     62.9706   9    723.5109   0
 215.1556   08   02   3.734  -1081.4274   9    631.5861   0
 215.1602   08   02   3.844   -530.8006   9    499.9532   0
 215.1648   08   02   3.954   -982.4092   9    649.8665   0
 215.1693   08   02   4.064   -329.1595   9    587.5379   0
 215.1739   08   02   4.174   -862.8890   9    478.8990   0
 215.1785   08   02   4.284    312.3748   9    500.4904   0
 215.1831   08   02   4.394   -489.3459   9    567.7313   0
 215.1877   08   02   4.504   -199.5008   9    812.9303   0
 215.1923   08   02   4.614    622.0461   9    247.8503   0
 215.1968   08   02   4.724    472.3360   9    564.0523   0
 215.2014   08   02   4.834   -565.3838   9    954.0341   0
 215.2060   08   02   4.944    177.8723   9    305.8743   0
 215.2106   08   02   5.054   -194.8822   9    475.5008   0
 215.2152   08   02   5.164    390.4404   9    679.3927   0
 215.2198   08   02   5.274   1029.6090   9    651.4276   0
 215.2243   08   02   5.384   1515.9134   9    616.4354   0
 215.2289   08   02   5.494    491.8242   9    355.6078   0
 215.2335   08   02   5.604    216.2855   9    578.1232   0
 215.2381   08   02   5.714    221.0167   9    501.6936   0
 215.2427   08   02   5.824   -220.4535   9    628.7947   0
 215.2473   08   02   5.934    402.6064   9    804.7053   0
 215.2518   08   02   6.044    973.9606   9    557.7044   0
 215.2564   08   02   6.154    507.1444   9    467.5359   0
 215.2610   08   02   6.264    177.7596   9    358.1164   0
 215.2656   08   02   6.374   -770.4044   9   1168.8567   0
 215.2702   08   02   6.484    712.7283   9    581.7975   0
 215.2748   08   02   6.594    -19.9388   9    359.2054   0
 215.2793   08   02   6.704    214.0325   9    553.4511   0
 215.2839   08   02   6.814   1190.8093   9    315.8114   0
 215.2885   08   02   6.924    792.2582   9    457.5383   0
 215.2931   08   02   7.034    791.9203   9    416.7769   0
 215.2977   08   02   7.144    383.6814   9    219.8743   0
 215.3023   08   02   7.254   1195.9912   9    456.2413   0
 215.3068   08   02   7.364    781.5566   9    190.2123   0
 215.3114   08   02   7.474    596.4748   9    260.3669   0
 215.3160   08   02   7.584     47.4251   9    308.7887   0
 215.3206   08   02   7.694   -276.5525   9    455.7726   0
 215.3252   08   02   7.804    695.7183   9    212.4867   0
 215.3298   08   02   7.914    584.4214   9    362.0963   0
 215.3343   08   02   8.024     54.8599   9    462.7575   0
 215.3389   08   02   8.134    144.7536   9    448.7909   0
 215.3435   08   02   8.244    234.7599   9    328.2057   0
 215.3481   08   02   8.354    557.1604   9    278.3794   0
 215.3527   08   02   8.464    215.0464   9    223.8537   0
 215.3573   08   02   8.574    754.2956   9    318.9542   0
 215.4990   08   02  11.977    967.6506   9    314.1439   0
 215.5036   08   02  12.087    894.4813   9    185.5284   0
 215.5082   08   02  12.197    369.9055   9    308.1551   0
 215.5128   08   02  12.307    501.9307   9    230.6937   0
 215.5174   08   02  12.417    461.5541   9    215.1765   0
 215.5220   08   02  12.527    624.8765   9    265.8635   0
 215.5265   08   02  12.637    791.0829   9    249.2579   0
 215.5311   08   02  12.747    439.0158   9    176.2345   0
 215.5357   08   02  12.857    939.3442   9    187.7572   0
 215.5403   08   02  12.967    616.3311   9    263.4944   0
 215.5449   08   02  13.077    319.8086   9    283.2792   0
 215.5495   08   02  13.187   1018.2816   9    349.4143   0
 215.5540   08   02  13.297    547.0072   9    275.2233   0
 215.5586   08   02  13.407    377.5963   9    247.5780   0
 215.5632   08   02  13.517    574.8864   9    205.8432   0
 215.5678   08   02  13.627    195.4742   9    333.0358   0
 215.5724   08   02  13.737    704.2411   9    264.0781   0
 215.5770   08   02  13.847    334.0152   9    147.6044   0
 215.5815   08   02  13.957    194.9401   9    368.1791   0
 215.5861   08   02  14.067    826.6528   9    324.4744   0
 215.5907   08   02  14.177    988.8003   9    247.4914   0
 215.5953   08   02  14.287   1182.6722   9    324.7907   0
 215.5999   08   02  14.397    661.7282   9    315.2278   0
 215.6045   08   02  14.507    337.4333   9    330.8033   0
 215.6090   08   02  14.617    110.2346   9    278.6159   0
 215.6136   08   02  14.727    342.8809   9    181.1238   0
 215.6182   08   02  14.837    239.2689   9    299.6286   0
 215.6228   08   02  14.947    296.4158   9    245.7265   0
 215.6274   08   02  15.057    832.8482   9    238.0912   0
 215.6320   08   02  15.167    779.3331   9    187.1862   0
 215.6365   08   02  15.277    825.6915   9    283.3874   0
 215.6411   08   02  15.387    777.6240   9    211.7205   0
 215.6457   08   02  15.497    708.3001   9    317.3474   0
 215.6503   08   02  15.607    706.0570   9    216.4095   0
 215.6549   08   02  15.717    708.9410   9    271.8410   0
 215.6595   08   02  15.827    508.8738   9    173.2486   0
 215.6640   08   02  15.937   -214.8080   9    229.4937   0
 215.6686   08   02  16.047    664.0781   9    311.2929   0
 215.6732   08   02  16.157    745.6859   9    216.2659   0
 215.6778   08   02  16.267    684.8005   9    220.4348   0
 215.6824   08   02  16.377    931.4398   9    214.3730   0
 215.6870   08   02  16.487    366.8078   9    231.6418   0
 215.6915   08   02  16.597    740.1315   9    209.5378   0
 215.6961   08   02  16.707    742.2678   9    324.5550   0
 215.7007   08   02  16.817    391.9097   9    166.5742   0
 215.7053   08   02  16.927    613.7676   9    315.8893   0
 215.7099   08   02  17.037    450.1247   9    304.5730   0
 215.7145   08   02  17.147    458.4564   9    258.5374   0
 215.7190   08   02  17.257     86.3077   9    292.8558   0
 215.7236   08   02  17.367    357.8352   9     94.0055   0
 215.7282   08   02  17.477    331.6652   9    321.1604   0
 215.7668   08   02  18.404   -338.7008   9    281.4552   0
 215.7714   08   02  18.514    267.7360   9    334.6637   0
 215.7760   08   02  18.624    714.4745   9    189.2848   0
 215.7806   08   02  18.734     27.4207   9    374.6846   0
 215.7852   08   02  18.844    210.3718   9    304.9478   0
 215.7898   08   02  18.954    263.1293   9    284.8298   0
 215.7943   08   02  19.064    680.2534   9    231.2476   0
 215.7989   08   02  19.174     27.6401   9    128.5121   0
 215.8035   08   02  19.284    207.8491   9    314.7384   0
 215.8081   08   02  19.394   -129.4258   9    305.8864   0
 215.8127   08   02  19.504    -27.5304   9    209.3176   0
 215.8173   08   02  19.614    936.0340   9    270.2799   0
 215.8218   08   02  19.724    -25.2271   9    262.5220   0
 215.8264   08   02  19.834   1130.9405   9    276.7067   0
 215.8310   08   02  19.944    671.5885   9    290.9653   0
 215.8356   08   02  20.054    603.8044   9    129.7093   0
 215.8402   08   02  20.164    699.3383   9    319.5250   0
 215.8448   08   02  20.274    353.2887   9    271.4037   0
 215.8493   08   02  20.384    973.2165   9    202.9029   0
 215.8539   08   02  20.494    701.6416   9    513.5976   0
 215.8585   08   02  20.604    652.7230   9    389.8563   0
 215.8631   08   02  20.714    417.5629   9    330.2271   0
 215.8677   08   02  20.824    470.3203   9    376.6770   0
 215.8723   08   02  20.934    183.6092   9    271.5786   0
 215.8768   08   02  21.044    348.3529   9    216.4228   0
 215.8814   08   02  21.154    237.7926   9    365.4036   0
 215.8860   08   02  21.264   1174.4847   9    260.6620   0
 215.8906   08   02  21.374    293.9502   9    229.9598   0
 215.8952   08   02  21.484    297.6794   9    254.1450   0
 215.8998   08   02  21.594    517.5937   9    271.3968   0
 215.9043   08   02  21.704    -39.9246   9    252.5834   0
 215.9089   08   02  21.814    312.4866   9    282.2020   0
 215.9135   08   02  21.924    127.3419   9    276.8042   0
 215.9181   08   02  22.034    869.5662   9    373.6186   0
 215.9227   08   02  22.144    111.6572   9    511.8052   0
 215.9273   08   02  22.254    563.4411   9    272.9906   0
 215.9318   08   02  22.364    163.0985   9    274.0820   0
 215.9364   08   02  22.474    378.7351   9    468.5505   0
 215.9410   08   02  22.584    222.7660   9    331.6090   0
 215.9456   08   02  22.694     57.5835   9    220.1839   0
 215.9502   08   02  22.804    721.0555   9    232.1648   0
 215.9548   08   02  22.914     93.4498   9    351.7212   0
 215.9593   08   02  23.024   -272.2330   9    279.8666   0
 215.9639   08   02  23.134    -68.3325   9    284.0179   0
 215.9685   08   02  23.244     55.7189   9    226.6315   0
 215.9731   08   02  23.354    136.2262   9    212.5340   0
 215.9777   08   02  23.464   -154.8723   9    310.3007   0
 215.9823   08   02  23.574     99.5921   9    318.3921   0
 215.9868   08   02  23.684   -230.9922   9    314.3390   0
 215.9914   08   02  23.794     21.4979   9    218.1244   0
 215.9960   08   02  23.904    409.6657   9    160.0997   0
 216.0006   08   03   0.014    124.2707   9    191.5612   0
 216.0052   08   03   0.124    523.1875   9    300.3760   0
 216.0098   08   03   0.234   1042.3167   9    218.1557   0
 216.0143   08   03   0.344    656.6716   9    159.1076   0
 216.0189   08   03   0.454    574.0804   9    309.1114   0
 216.0235   08   03   0.564    610.0564   9    283.6128   0
 216.0281   08   03   0.674    418.0016   9    255.8673   0
 216.0327   08   03   0.784    562.7830   9    281.2992   0
 216.0373   08   03   0.894    709.3194   9    412.8551   0
 216.0418   08   03   1.004   -170.6666   9    164.2491   0
 216.0464   08   03   1.114    756.2637   9    260.6992   0
 216.0510   08   03   1.224    486.7728   9    247.8058   0
 216.0556   08   03   1.334   1051.5301   9    249.7274   0
 216.0602   08   03   1.444    287.9177   9    276.7859   0
 216.0648   08   03   1.554    230.4438   9    224.1442   0
 216.0693   08   03   1.664    383.1224   9    236.9222   0
 216.0739   08   03   1.774    347.9142   9    219.5559   0
 216.0785   08   03   1.884    514.8516   9    209.2435   0
 216.0831   08   03   1.994    451.0161   9    196.9385   0
 216.0877   08   03   2.104    589.1069   9    253.2645   0
 216.0923   08   03   2.214    546.0016   9    364.4695   0
 216.0968   08   03   2.324    237.2441   9    214.9110   0
 216.1014   08   03   2.434    504.1027   9    214.4845   0
 216.1060   08   03   2.544    415.4789   9    134.4321   0
 216.1106   08   03   2.654    818.2345   9    220.2469   0
 216.1152   08   03   2.764    514.4129   9    230.1399   0
 216.1198   08   03   2.874    650.7487   9    434.7333   0
 216.1243   08   03   2.984    375.4446   9    289.4341   0
 216.1289   08   03   3.094    191.0676   9    205.0794   0
 216.1335   08   03   3.204    515.9484   9    351.0829   0
 216.1381   08   03   3.314    961.8095   9    152.3593   0
 216.1427   08   03   3.424    484.5791   9    218.4165   0
 216.1473   08   03   3.534    373.3606   9    245.7732   0
 216.1518   08   03   3.644    209.6041   9    315.7739   0
 216.1564   08   03   3.754    295.3761   9    347.8304   0
 216.1610   08   03   3.864    522.2004   9    344.2565   0
 216.1656   08   03   3.974    426.4472   9    166.1735   0
 216.1702   08   03   4.084    506.4060   9    357.9247   0
 216.1748   08   03   4.194    -18.5364   9    154.9508   0
 216.1793   08   03   4.304    754.3991   9    202.1591   0
 216.1839   08   03   4.414    538.3237   9    241.1207   0
 216.1885   08   03   4.524    662.4848   9    151.7113   0
 216.1931   08   03   4.634    289.8919   9    270.8354   0
 216.1977   08   03   4.744    334.9716   9    274.6297   0
 216.2023   08   03   4.854    552.8019   9    157.8074   0
 216.2068   08   03   4.964    105.8440   9    407.5670   0
 216.2114   08   03   5.074    248.6512   9    316.5395   0
 216.2160   08   03   5.184    667.5302   9    322.2943   0
 216.2206   08   03   5.294    163.6469   9    240.3941   0
 216.2252   08   03   5.404    428.2021   9    227.5070   0
 216.2298   08   03   5.514    328.6100   9    222.0944   0
 216.2343   08   03   5.624    461.8748   9    185.7744   0
 216.2389   08   03   5.734    344.5140   9    157.4429   0
 216.2435   08   03   5.844     58.7900   9    137.1667   0
 216.2481   08   03   5.954    343.5269   9    264.0973   0
 216.2527   08   03   6.064    534.4848   9    274.6509   0
 216.2573   08   03   6.174    432.4797   9    282.2066   0
 216.2618   08   03   6.284    206.7523   9    233.1013   0
 216.2664   08   03   6.394    140.0651   9    259.0118   0
 216.2710   08   03   6.504    436.3186   9    357.6618   0
 216.2756   08   03   6.614   -104.8569   9    226.3437   0
 216.2802   08   03   6.724    196.6615   9    215.4145   0
 216.2847   08   03   6.834    395.7360   9    223.2145   0
 216.2893   08   03   6.944    844.1197   9    226.8951   0
 216.2939   08   03   7.054    505.5286   9    180.8846   0
 216.2985   08   03   7.164    298.9956   9    283.5703   0
 216.3031   08   03   7.274    449.8096   9    278.2948   0
 216.3077   08   03   7.384    686.7247   9    128.5584   0
 216.3123   08   03   7.494    398.6974   9    269.3838   0
 216.3168   08   03   7.604    485.1275   9    181.3019   0
 216.3214   08   03   7.714    392.5552   9    183.5414   0
 216.3260   08   03   7.824    411.2013   9    344.0375   0
 216.3306   08   03   7.934    836.6613   9    263.7937   0
 216.3352   08   03   8.044    856.5139   9    117.0016   0
 216.3397   08   03   8.154    675.7564   9    252.9017   0
 216.3443   08   03   8.264    309.0865   9    279.7824   0
 216.3489   08   03   8.374    998.9920   9    291.0469   0
 216.3535   08   03   8.484    580.8807   9    248.4330   0
 216.3581   08   03   8.594    219.1465   9    447.7187   0
 216.3627   08   03   8.704    567.1704   9    286.6617   0
 216.3673   08   03   8.814    700.5448   9    275.3504   0
 216.3718   08   03   8.924   -209.7137   9    277.2276   0
 216.3764   08   03   9.034    626.3991   9    309.0795   0
 216.3810   08   03   9.144    937.7889   9    294.4395   0
 216.3856   08   03   9.254    715.0229   9    365.0001   0
 216.4586   08   03  11.006    -83.7578   9    354.2828   0
 216.4632   08   03  11.116   -686.4404   9    477.0676   0
 216.4678   08   03  11.226   -691.0569   9    138.7187   0
 216.4723   08   03  11.336   -163.7784   9    392.5688   0
 216.4769   08   03  11.446    210.2739   9    278.9576   0
 216.4815   08   03  11.556   -577.0716   9    249.0308   0
 216.4861   08   03  11.666    399.9930   9    320.0904   0
 216.4907   08   03  11.776    695.2338   9    199.6054   0
 216.4953   08   03  11.886   1186.1294   9    316.3430   0
 216.4998   08   03  11.996   1614.7012   9    335.6476   0
 216.5044   08   03  12.106   1926.2099   9    234.5833   0
 216.5090   08   03  12.216   1348.3689   9    314.6932   0
 216.5136   08   03  12.326    912.7623   9    225.6582   0
 216.5182   08   03  12.436    263.4744   9    326.0054   0
 216.5228   08   03  12.546    748.5443   9    253.2022   0
 216.5273   08   03  12.656    418.2395   9    260.7318   0
 216.5319   08   03  12.766    447.2579   9    316.8235   0
 216.5365   08   03  12.876    921.7756   9    406.7220   0
 216.5411   08   03  12.986    752.5013   9    330.9213   0
 216.5457   08   03  13.096    299.7475   9    309.6148   0
 216.5503   08   03  13.206    329.5353   9    202.3268   0
 216.5548   08   03  13.316    200.6011   9    200.4980   0
 216.5594   08   03  13.426   1006.9624   9    234.6247   0
 216.5640   08   03  13.536    576.0823   9    299.4453   0
 216.5686   08   03  13.646    511.5602   9    206.1038   0
 216.5732   08   03  13.756    624.6662   9    232.9629   0
 216.5778   08   03  13.866    611.5859   9    400.8682   0
 216.5823   08   03  13.976   1091.7095   9    238.8382   0
 216.5869   08   03  14.086    535.3026   9    371.5736   0
 216.5915   08   03  14.196   -442.0918   9    349.0458   0
 216.5961   08   03  14.306    393.3979   9    460.4571   0
 216.6007   08   03  14.416    874.2909   9    272.7018   0
 216.6053   08   03  14.526    676.1080   9    302.7510   0
 216.6098   08   03  14.636    554.7581   9    386.5072   0
 216.6144   08   03  14.746    156.1940   9    312.2565   0
 216.6190   08   03  14.856   1038.6189   9    398.4783   0
 216.6236   08   03  14.966   1244.8258   9    499.1667   0
 216.6282   08   03  15.076     32.3160   9    513.2445   0
 216.6328   08   03  15.186   1817.2808   9    661.5872   0
 216.6373   08   03  15.296   -144.8724   9    421.2533   0
 216.6419   08   03  15.406   -847.5807   9    477.6868   0
 216.6465   08   03  15.516   -419.7783   9    437.4084   0
 216.6511   08   03  15.626   1020.7022   9    407.1540   0
 216.6557   08   03  15.736    772.2866   9   1042.1365   0
 216.6603   08   03  15.846   -395.3765   9    627.2206   0
 216.6648   08   03  15.956   1356.5029   9    580.7002   0
 216.7227   08   03  17.345    737.7489   9    728.2461   0
 216.7273   08   03  17.455   -558.7198   9    660.3507   0
 216.7319   08   03  17.565   -408.5699   9    434.9884   0
 216.7365   08   03  17.675     -9.0580   9    436.7706   0
 216.7410   08   03  17.785    774.3006   9    483.9281   0
 216.7456   08   03  17.895    316.4978   9    501.4083   0
 216.7502   08   03  18.005    878.3080   9    600.6177   0
 216.7548   08   03  18.115    840.2643   9    475.4753   0
 216.7594   08   03  18.225    995.8491   9    251.4825   0
 216.7640   08   03  18.335    671.0392   9    367.3214   0
 216.7685   08   03  18.445     88.3423   9    382.0725   0
 216.7731   08   03  18.555    419.3329   9    304.1169   0
 216.7777   08   03  18.665    -93.3509   9    205.4090   0
 216.7823   08   03  18.775    672.1049   9    340.0620   0
 216.7869   08   03  18.885   1003.0955   9    695.0981   0
 216.7915   08   03  18.995   -252.3457   9    553.3028   0
 216.7960   08   03  19.105    132.9930   9    624.7934   0
 216.8006   08   03  19.215    855.3965   9    906.3726   0
 216.8052   08   03  19.325  -1130.3340   9    400.9583   0
 216.8098   08   03  19.435    155.1585   9    630.5832   0
 216.8144   08   03  19.545    326.1952   9    428.8574   0
 216.8190   08   03  19.655    142.0510   9    291.8087   0
 216.8235   08   03  19.765    778.3501   9    315.1084   0
 216.8281   08   03  19.875   1463.2428   9    237.6093   0
 216.8327   08   03  19.985    574.7046   9    362.5266   0
 216.8373   08   03  20.095    264.2810   9    389.6901   0
 216.8419   08   03  20.205    441.8181   9    564.7090   0
 216.8465   08   03  20.315    860.2985   9    310.5974   0
 216.8510   08   03  20.425    523.5534   9    428.4640   0
 216.8556   08   03  20.535    -67.2425   9    415.8559   0
 216.8602   08   03  20.645    988.6027   9    287.9809   0
 216.8648   08   03  20.755    758.4225   9    540.0857   0
 216.8694   08   03  20.865   -162.6181   9    548.0429   0
 216.8740   08   03  20.975    -10.2302   9    381.9444   0
 216.8785   08   03  21.085    705.7794   9    549.8284   0
 216.8831   08   03  21.195   1463.0296   9    759.7825   0
 216.8877   08   03  21.305    581.0985   9    635.1445   0
 216.8923   08   03  21.415    798.8106   9    732.3750   0
 216.8969   08   03  21.525    922.3193   9    307.9707   0
 216.9015   08   03  21.635   1908.4710   9    489.9294   0
 216.9060   08   03  21.745   1016.9489   9    348.0976   0
 216.9106   08   03  21.855   1035.5978   9    356.5942   0
 216.9152   08   03  21.965   -179.1356   9    542.0014   0
 216.9198   08   03  22.075    372.4444   9    289.2644   0
 216.9244   08   03  22.185    564.7940   9    447.6379   0
 216.9290   08   03  22.295    191.0709   9    482.1389   0
 216.9335   08   03  22.405   1276.4345   9    628.2961   0
 216.9381   08   03  22.515   1512.7955   9    493.8985   0
 216.9427   08   03  22.625   2318.3196   9    835.7716   0
 216.9473   08   03  22.735   2315.0161   9    545.4909   0
 216.9519   08   03  22.845   1516.0990   9    364.9534   0
 216.9565   08   03  22.955    867.0121   9    348.2796   0
 216.9610   08   03  23.065    213.0233   9    701.6256   0
 216.9656   08   03  23.175    837.1739   9    526.5173   0
 216.9702   08   03  23.285    453.8600   9    364.2426   0
 216.9748   08   03  23.395    735.0847   9    584.1537   0
 216.9794   08   03  23.505   1525.7964   9    415.4799   0
 216.9840   08   03  23.615   1060.8537   9    556.4985   0
 216.9885   08   03  23.725   1547.7487   9    676.4850   0
 216.9931   08   03  23.835    -35.5927   9    378.5539   0
 216.9977   08   03  23.945    474.2138   9    498.7668   0
 217.0023   08   04   0.055   1850.8194   9    727.1641   0
 217.0069   08   04   0.165    292.5207   9    499.9118   0
 217.0115   08   04   0.275    513.0035   9    533.3829   0
 217.0160   08   04   0.385    350.4920   9    526.7041   0
 217.0206   08   04   0.495   -152.7075   9    443.8441   0
 217.0252   08   04   0.605  -1407.4028   9    356.8240   0
 217.0298   08   04   0.715   -266.7320   9    505.3987   0
 217.0344   08   04   0.825    -73.9560   9    334.7184   0
 217.0390   08   04   0.935    370.4196   9    389.7578   0
 217.0435   08   04   1.045    433.1864   9    588.0679   0
 217.0481   08   04   1.155   1269.8275   9    451.1696   0
 217.0527   08   04   1.265   -210.6788   9    413.6542   0
 217.0573   08   04   1.375    362.0010   9    341.8276   0
 217.0619   08   04   1.485   1029.3105   9    193.2219   0
 217.0665   08   04   1.595    934.6808   9    328.6632   0
 217.0710   08   04   1.705    614.4533   9    203.4065   0
 217.0756   08   04   1.815    557.4410   9    250.2527   0
 217.0802   08   04   1.925    957.1660   9    271.7406   0
 217.0848   08   04   2.035   1317.0357   9    220.4088   0
 217.0894   08   04   2.145    939.5828   9    539.7481   0
 217.0940   08   04   2.255    784.3177   9    193.8483   0
 217.0985   08   04   2.365    798.8106   9    280.3753   0
 217.1031   08   04   2.475    895.1452   9    379.7145   0
 217.1077   08   04   2.585   1057.5502   9    257.0841   0
 217.1123   08   04   2.695    791.9904   9    364.7084   0
 217.1169   08   04   2.805    443.6297   9    503.6274   0
 217.1215   08   04   2.915    168.6923   9    516.8557   0
 217.1260   08   04   3.025    134.6980   9    411.0746   0
 217.1306   08   04   3.135   1329.7169   9    520.8394   0
 217.1352   08   04   3.245    879.5868   9    425.5104   0
 217.1398   08   04   3.355   -466.9674   9    378.5019   0
 217.1444   08   04   3.465   -270.5683   9    259.7095   0
 217.1490   08   04   3.575   -559.1461   9    237.4622   0
 217.1535   08   04   3.685    -59.5698   9    424.3413   0
 217.1581   08   04   3.795    697.7870   9    457.2517   0
 217.1627   08   04   3.905   1468.5710   9    460.1712   0
 217.1673   08   04   4.015   1620.5326   9    285.4019   0
 217.1719   08   04   4.125   1161.9838   9    369.4501   0
 217.1765   08   04   4.235   1610.4089   9    409.5865   0
 217.1810   08   04   4.345    904.9492   9    436.4634   0
 217.1856   08   04   4.455   1445.1267   9    425.6801   0
 217.1902   08   04   4.565    371.1656   9    377.9863   0
 217.1948   08   04   4.675   -224.8520   9    432.0952   0
 217.1994   08   04   4.785   1045.7215   9    404.0813   0
 217.2040   08   04   4.895    989.6683   9    340.4433   0
 217.2085   08   04   5.005   -193.9481   9    358.6771   0
 217.2131   08   04   5.115    661.8747   9    408.5687   0
 217.2177   08   04   5.225   1392.5902   9    497.6083   0
 217.2223   08   04   5.335   -243.5008   9    288.8465   0
 217.2269   08   04   5.445    586.3201   9    574.9770   0
 217.2315   08   04   5.555    872.4469   9    452.7647   0
 217.2360   08   04   5.665   -566.6056   9    425.9529   0
 217.2406   08   04   5.775    955.3544   9    314.1670   0
 217.2452   08   04   5.885    578.0081   9    550.8241   0
 217.2498   08   04   5.995   1232.7429   9    287.2489   0
 217.2544   08   04   6.105    527.8160   9    599.6598   0
 217.2590   08   04   6.215    893.2271   9    575.7862   0
 217.2635   08   04   6.325   1808.6196   9    361.6053   0
 217.2681   08   04   6.435    853.1587   9    215.3829   0
 217.2727   08   04   6.545   1316.1832   9    409.1290   0
 217.2773   08   04   6.655   1121.5957   9    526.8027   0
 217.2819   08   04   6.765   1038.5816   9    283.4308   0
 217.2865   08   04   6.875    909.5315   9    544.1691   0
 217.2910   08   04   6.985    932.0167   9    374.9318   0
 217.2956   08   04   7.095    320.4407   9    296.9407   0
 217.3002   08   04   7.205    980.5037   9    410.6128   0
 217.3048   08   04   7.315    887.7923   9    570.3767   0
 217.3094   08   04   7.425    455.4584   9    412.0211   0
 217.3140   08   04   7.535   1593.5717   9    609.1589   0
 217.3185   08   04   7.645    692.2457   9    356.2391   0
 217.3231   08   04   7.755    512.7903   9    254.1675   0
 217.3277   08   04   7.865    446.7201   9    393.0550   0
 217.3323   08   04   7.975   1242.8665   9    299.7697   0
 217.3369   08   04   8.085    958.4448   9    523.8607   0
 217.3415   08   04   8.195   1306.3792   9    432.0711   0
 217.3460   08   04   8.305   1115.3083   9    306.4378   0
 217.3506   08   04   8.415    667.0963   9    354.3493   0
 217.3552   08   04   8.525   1095.5938   9    522.8417   0
 217.4015   08   04   9.637   1397.1824   9    584.2372   0
 217.4061   08   04   9.747   1704.5264   9    335.8021   0
 217.4107   08   04   9.857   -634.7738   9    586.6413   0
 217.4153   08   04   9.967   1175.1763   9    315.2685   0
 217.4199   08   04  10.077   1396.3322   9    493.9426   0
 217.4245   08   04  10.187   1679.2333   9    295.6220   0
 217.4290   08   04  10.297   1815.9014   9    300.1276   0
 217.4336   08   04  10.407   1776.2613   9    385.8564   0
 217.4382   08   04  10.517   1302.4924   9    312.5902   0
 217.4428   08   04  10.627   1270.5040   9    182.1089   0
 217.4474   08   04  10.737   1135.3236   9    374.9193   0
 217.4520   08   04  10.847    791.9528   9    263.2598   0
 217.4565   08   04  10.957    311.4887   9    328.7323   0
 217.4611   08   04  11.067    667.2936   9    302.3117   0
 217.4657   08   04  11.177    971.5556   9    201.2686   0
 217.4703   08   04  11.287    828.5110   9    181.2149   0
 217.4749   08   04  11.397    770.6980   9    311.7947   0
 217.4795   08   04  11.507    886.7491   9    134.5979   0
 217.4840   08   04  11.617   1043.3968   9    210.3018   0
 217.4886   08   04  11.727    861.2434   9    304.8411   0
 217.4932   08   04  11.837    793.6532   9    308.7985   0
 217.4978   08   04  11.947   1370.2952   9    203.1472   0
 217.5024   08   04  12.057   1190.1610   9    278.4978   0
 217.5070   08   04  12.167   1697.9375   9    294.2090   0
 217.5115   08   04  12.277    881.2228   9    323.2251   0
 217.5161   08   04  12.387   1456.9083   9    188.9831   0
 217.5207   08   04  12.497    258.5643   9    304.0158   0
 217.5253   08   04  12.607   1164.5490   9    422.0787   0
 217.5299   08   04  12.717    321.9035   9    252.6991   0
 217.5345   08   04  12.827    700.7698   9    179.0571   0
 217.5390   08   04  12.937    131.8859   9    458.2227   0
 217.5436   08   04  13.047    493.4295   9    266.6374   0
 217.5482   08   04  13.157    905.1345   9    270.0206   0
 217.5528   08   04  13.267    334.5501   9    232.1553   0
 217.5574   08   04  13.377    862.8375   9    224.3866   0
 217.5620   08   04  13.487    635.6240   9    196.8075   0
 217.5665   08   04  13.597    510.6459   9    374.3539   0
 217.5711   08   04  13.707     43.7848   9    378.3703   0
 217.5757   08   04  13.817    363.2441   9    275.0110   0
 217.5803   08   04  13.927    898.8643   9    381.8037   0
 217.5849   08   04  14.037   1020.0165   9    410.8808   0
 217.5895   08   04  14.147    446.9879   9    290.8758   0
 217.5940   08   04  14.257    798.8606   9    313.5791   0
 217.5986   08   04  14.367    732.3332   9    265.0190   0
 217.6032   08   04  14.477    780.2627   9    203.9721   0
 217.6078   08   04  14.587    742.4292   9    188.2297   0
 217.6124   08   04  14.697    860.0743   9    231.6812   0
 217.6170   08   04  14.807    420.8445   9    254.5880   0
 217.6215   08   04  14.917   1169.4376   9    252.8930   0
 217.6261   08   04  15.027    799.1794   9    135.3772   0
 217.6307   08   04  15.137    982.7144   9    226.1518   0
 217.6353   08   04  15.247    446.9879   9    260.9572   0
 217.6399   08   04  15.357    678.9837   9    306.4442   0
 217.6445   08   04  15.467    430.0903   9    146.2907   0
 217.6490   08   04  15.577    674.4139   9    217.2976   0
 217.6536   08   04  15.687    679.5151   9    287.0955   0
 217.6582   08   04  15.797    885.0487   9    232.7597   0
 217.6628   08   04  15.907    315.3145   9    204.0522   0
 217.6674   08   04  16.017    243.5797   9    251.9991   0
 217.6720   08   04  16.127    136.2431   9    198.7479   0
 217.6765   08   04  16.237    360.7998   9    277.0434   0
 217.6811   08   04  16.347    883.5609   9    182.1587   0
 217.6857   08   04  16.457   1358.2862   9    188.7995   0
 217.6903   08   04  16.567   1162.9549   9    212.8438   0
 217.6949   08   04  16.677    942.4366   9    156.0110   0
 217.6995   08   04  16.787   1290.9086   9    322.7015   0
 217.7040   08   04  16.897   1369.3387   9    371.8432   0
 217.7086   08   04  17.007   1425.1325   9    251.9912   0
 217.7132   08   04  17.117   1012.6836   9    244.8633   0
 217.7178   08   04  17.227    779.5188   9    256.1937   0
 217.7224   08   04  17.337   1138.2993   9    355.0848   0
 217.7270   08   04  17.447   1036.5952   9    186.3833   0
 217.7315   08   04  17.557    780.1564   9    191.2066   0
 217.7361   08   04  17.667   1384.4296   9    263.1481   0
 217.7407   08   04  17.777   1061.9947   9    233.7775   0
 217.7453   08   04  17.887   1718.5546   9    150.7277   0
 217.7923   08   04  19.016   1305.6919   9    337.7581   0
 217.7969   08   04  19.126   1693.2652   9    260.1127   0
 217.8015   08   04  19.236   1729.3703   9    265.6392   0
 217.8061   08   04  19.346    760.9943   9    281.0770   0
 217.8107   08   04  19.456   1235.2645   9    283.5531   0
 217.8153   08   04  19.566   1033.1202   9    300.2889   0
 217.8198   08   04  19.676    566.4276   9    343.5951   0
 217.8244   08   04  19.786    185.2061   9    236.0497   0
 217.8290   08   04  19.896    960.0184   9    250.1180   0
 217.8336   08   04  20.006    956.5639   9    291.5766   0
 217.8382   08   04  20.116   1112.4624   9    250.0253   0
 217.8428   08   04  20.226   1001.0267   9    298.4403   0
 217.8473   08   04  20.336    446.1885   9    319.7887   0
 217.8519   08   04  20.446    180.5258   9    451.2062   0
 217.8565   08   04  20.556   1119.7057   9    198.8295   0
 217.8611   08   04  20.666   1205.5112   9    250.7279   0
 217.8657   08   04  20.776   1297.4456   9    403.5063   0
 217.8703   08   04  20.886   2212.5554   9    240.0746   0
 217.8748   08   04  20.996   1129.7349   9    358.1195   0
 217.8794   08   04  21.106   1104.4390   9    289.8023   0
 217.8840   08   04  21.216    391.2507   9    432.1700   0
 217.8886   08   04  21.326    822.3953   9    316.9456   0
 217.8932   08   04  21.436   1516.3053   9    474.3040   0
 217.8978   08   04  21.546   1332.3250   9    257.6393   0
 217.9023   08   04  21.656   1467.2736   9    592.9899   0
 217.9069   08   04  21.766   1179.7696   9    304.6253   0
 217.9115   08   04  21.876   1621.3892   9    288.3450   0
 217.9161   08   04  21.986   1511.1793   9    434.3533   0
 217.9207   08   04  22.096   1372.4418   9    274.7434   0
 217.9253   08   04  22.206   1083.8234   9    507.8458   0
 217.9298   08   04  22.316   1044.8209   9    346.5012   0
 217.9344   08   04  22.426    520.1818   9    307.5166   0
 217.9390   08   04  22.536   1136.6439   9    274.8902   0
 217.9436   08   04  22.646   1279.7274   9    295.5546   0
 217.9482   08   04  22.756   1386.7056   9    388.5451   0
 217.9528   08   04  22.866    893.7142   9    387.0502   0
 217.9573   08   04  22.976   1563.4426   9    375.9718   0
 217.9619   08   04  23.086   1078.0288   9    261.8828   0
 217.9665   08   04  23.196   2037.3786   9    382.5798   0
 217.9711   08   04  23.306   1213.7574   9    319.8905   0
 217.9757   08   04  23.416   1188.3501   9    252.4683   0
 217.9803   08   04  23.526    968.7104   9    237.2051   0
 217.9848   08   04  23.636   1024.2053   9    228.6229   0
 217.9894   08   04  23.746   1456.5758   9    246.9846   0
 217.9940   08   04  23.856   1111.3480   9    235.0433   0
 217.9986   08   04  23.966    924.0247   9    235.5787   0
 218.0032   08   05   0.076   1268.5838   9    459.2874   0
 218.0078   08   05   0.186   1220.2207   9    265.1782   0
 218.0123   08   05   0.296   1168.7374   9    328.9865   0
 218.0169   08   05   0.406    920.9045   9    287.0232   0
 218.0215   08   05   0.516    695.5815   9    304.4656   0
 218.0261   08   05   0.626    905.9721   9    273.2562   0
 218.0307   08   05   0.736   1522.9915   9    123.1787   0
 218.0353   08   05   0.846    699.1475   9    398.7564   0
 218.0398   08   05   0.956    867.9725   9    253.2359   0
 218.0444   08   05   1.066    890.1482   9    307.9985   0
 218.0490   08   05   1.176    522.6333   9    189.3911   0
 218.0536   08   05   1.286    582.4743   9    201.1173   0
 218.0582   08   05   1.396    404.0658   9    215.3439   0
 218.0628   08   05   1.506   1212.6431   9    385.8062   0
 218.0673   08   05   1.616    765.1174   9    143.9184   0
 218.0719   08   05   1.726    -79.3422   9    332.3918   0
 218.0765   08   05   1.836   1100.6502   9    471.9657   0
 218.0811   08   05   1.946    940.9629   9    398.0977   0
 218.0857   08   05   2.056    866.6353   9    268.6707   0
 218.0903   08   05   2.166   1382.1368   9    374.1387   0
 218.0948   08   05   2.276    177.7399   9    279.8317   0
 218.0994   08   05   2.386    120.4620   9    303.6515   0
 218.1040   08   05   2.496   1032.3401   9    210.1853   0
 218.1086   08   05   2.606    619.8053   9    287.1999   0
 218.1132   08   05   2.716   1047.2725   9    318.5648   0
 218.1178   08   05   2.826    570.1049   9    439.7404   0
 218.1223   08   05   2.936    230.1147   9    371.8087   0
 218.1269   08   05   3.046    188.8835   9    283.8362   0
 218.1315   08   05   3.156    420.2240   9    432.0426   0
 218.1361   08   05   3.266    294.9702   9    336.1598   0
 218.1407   08   05   3.376   1396.0662   9    584.9271   0
 218.1453   08   05   3.486     53.2663   9    677.6904   0
 218.1498   08   05   3.596    315.9202   9    453.3698   0
 218.1544   08   05   3.706   1427.4911   9    420.8945   0
 218.1590   08   05   3.816   1295.6627   9    440.5919   0
 218.1636   08   05   3.926    903.5205   9    784.3395   0
 218.1682   08   05   4.036    300.0963   9    212.2670   0
 218.1728   08   05   4.146   1168.7374   9    295.9705   0
 218.1773   08   05   4.256   -221.6456   9    744.4210   0
 218.1819   08   05   4.366   -793.6449   9    342.0646   0
 218.1865   08   05   4.476    928.1478   9    486.8036   0
 218.1911   08   05   4.586    657.0248   9    378.5430   0
 218.1957   08   05   4.696    533.5540   9    220.8687   0
 218.2003   08   05   4.806    192.5609   9    365.6876   0
 218.2048   08   05   4.916   -143.3063   9    269.3858   0
 218.2094   08   05   5.026    250.1731   9    279.5858   0
 218.2140   08   05   5.136    -79.8994   9    310.4916   0
 218.2186   08   05   5.246    188.8835   9    230.2868   0
 218.2232   08   05   5.356     13.0380   9    403.2950   0
 218.2278   08   05   5.466   -242.5955   9    198.8893   0
 218.2323   08   05   5.576   -428.0245   9    323.7049   0
 218.2369   08   05   5.686   -565.0903   9    313.5747   0
 218.2415   08   05   5.796   -398.2711   9    318.9133   0
 218.2461   08   05   5.906  -1151.5763   9    549.4096   0
 218.2507   08   05   6.016   -193.7866   9    366.0356   0
 218.2553   08   05   6.126    737.0356   9    626.0222   0
 218.2598   08   05   6.236    201.9215   9    517.9127   0
 218.2644   08   05   6.346    412.5349   9    426.7389   0
 218.2690   08   05   6.456   1153.5822   9    531.3547   0
 218.2736   08   05   6.566   -579.9113   9    274.9953   0
 218.2782   08   05   6.676   -323.2749   9    528.6931   0
 218.2828   08   05   6.786    226.1030   9    371.8711   0
 218.2873   08   05   6.896    297.3104   9    319.8362   0
 218.2919   08   05   7.006     -9.3606   9    257.8619   0
 218.2965   08   05   7.116   -458.2235   9    342.5981   0
 218.3011   08   05   7.226   -303.8851   9    362.7304   0
 218.3057   08   05   7.336     79.3422   9    567.0139   0
 218.3103   08   05   7.446    581.1371   9    418.5228   0
 218.3148   08   05   7.556   -224.2086   9    440.6075   0
 218.3194   08   05   7.666    343.4448   9    482.4852   0
 218.3240   08   05   7.776    430.4760   9    358.6986   0
 218.3286   08   05   7.886    140.5204   9    242.3504   0
 218.3332   08   05   7.996   -141.7462   9    232.6111   0
 218.3378   08   05   8.106    268.8943   9    421.8982   0
 218.3423   08   05   8.216   -173.8397   9    419.1567   0
 218.3469   08   05   8.326   -276.0262   9    450.6880   0
 218.3515   08   05   8.436    -45.0200   9    302.0225   0
 218.3561   08   05   8.546    830.4187   9    229.7543   0
 218.3607   08   05   8.656     91.8230   9    492.6907   0
 218.3653   08   05   8.766    176.5141   9    493.8967   0
 218.3698   08   05   8.876   -452.3174   9    318.5973   0
 218.3744   08   05   8.986    532.3282   9    273.9912   0
 218.4189   08   05  10.053     25.4471   9    503.5098   0
 218.4235   08   05  10.163      5.2423   9    444.5711   0
 218.4280   08   05  10.273     21.2969   9    312.2095   0
 218.4326   08   05  10.383    299.7951   9    815.1070   0
 218.4372   08   05  10.493    -66.7303   9    295.4547   0
 218.4418   08   05  10.603    312.7917   9    600.4734   0
 218.4464   08   05  10.713    -37.4607   9    585.0633   0
 218.4510   08   05  10.823    436.4230   9    557.4640   0
 218.4555   08   05  10.933   -231.2081   9    584.4990   0
 218.4601   08   05  11.043    645.4605   9    578.7366   0
 218.4647   08   05  11.153     30.2525   9    351.7410   0
 218.4693   08   05  11.263    254.1432   9    398.1694   0
 218.4739   08   05  11.373    506.1022   9    403.3376   0
 218.4785   08   05  11.483    925.4877   9    255.5943   0
 218.4830   08   05  11.593   1152.4364   9    295.2259   0
 218.4876   08   05  11.703    951.3716   9    568.2736   0
 218.4922   08   05  11.813   1023.6720   9    385.4823   0
 218.4968   08   05  11.923   1365.1872   9    371.7042   0
 218.5014   08   05  12.033    692.6414   9    553.5115   0
 218.5060   08   05  12.143    950.3887   9    262.9419   0
 218.5105   08   05  12.253    716.9963   9    359.8724   0
 218.5151   08   05  12.363   1034.2658   9    394.7127   0
 218.5197   08   05  12.473    191.2354   9    338.5877   0
 218.5243   08   05  12.583    169.7201   9    474.3210   0
 218.5289   08   05  12.693   -364.1227   9    297.5840   0
 218.5335   08   05  12.803    357.8975   9    397.4580   0
 218.5380   08   05  12.913    504.7916   9    496.9883   0
 218.5426   08   05  13.023    751.9451   9    613.4569   0
 218.5472   08   05  13.133   -109.2150   9    403.2496   0
 218.5518   08   05  13.243    479.3445   9    578.4365   0
 218.5564   08   05  13.353    475.6312   9    279.5706   0
 218.5610   08   05  13.463    701.5970   9    174.3339   0
 218.5655   08   05  13.573    450.6210   9    137.5592   0
 218.5701   08   05  13.683    683.0305   9    300.6485   0
 218.5747   08   05  13.793    671.1260   9    285.8504   0
 218.5793   08   05  13.903    368.0545   9    464.9902   0
 218.5839   08   05  14.013   1156.1497   9    363.0134   0
 218.5885   08   05  14.123    368.9282   9    223.4250   0
 218.5930   08   05  14.233    546.5117   9    393.4595   0
 218.5976   08   05  14.343    312.9009   9    429.7582   0
 218.6022   08   05  14.453    -23.9181   9    178.7037   0
 218.6068   08   05  14.563    390.1159   9    216.0678   0
 218.6114   08   05  14.673    259.9316   9    182.3892   0
 218.6160   08   05  14.783    -53.5153   9    266.0050   0
 218.6205   08   05  14.893   -188.7235   9    289.6006   0
 218.6251   08   05  15.003    176.0545   9    151.2290   0
 218.6297   08   05  15.113    615.6448   9    289.9801   0
 218.6343   08   05  15.223    506.1022   9    258.4521   0
 218.6389   08   05  15.333    -77.1058   9    322.5447   0
 218.6435   08   05  15.443    396.4504   9    372.8666   0
 218.6480   08   05  15.553    302.4163   9    405.1565   0
 218.6526   08   05  15.663    168.4095   9    267.0040   0
 218.6572   08   05  15.773     12.2321   9    322.4500   0
 218.6618   08   05  15.883    585.9383   9    289.2875   0
 218.6664   08   05  15.993    835.3853   9    408.9040   0
 218.6710   08   05  16.103    262.6620   9    416.1497   0
 218.6755   08   05  16.213    421.2422   9    358.7821   0
 218.6801   08   05  16.323    461.3241   9    255.0978   0
 218.6847   08   05  16.433    773.6789   9    351.4523   0
 218.6893   08   05  16.543    389.1330   9    214.1724   0
 218.6939   08   05  16.653    789.2966   9    246.4619   0
 218.6985   08   05  16.763     92.1774   9    192.7380   0
 218.7030   08   05  16.873    850.2386   9    238.4649   0
 218.7076   08   05  16.983    542.2523   9    163.6621   0
 218.7514   08   05  18.034    871.0508   9    328.8506   0
 218.7560   08   05  18.144    634.6196   9    417.7327   0
 218.7606   08   05  18.254    580.8496   9    355.3245   0
 218.7652   08   05  18.364    266.2786   9    433.3856   0
 218.7697   08   05  18.474    754.4561   9    336.5498   0
 218.7743   08   05  18.584   -445.4745   9    182.9195   0
 218.7789   08   05  18.694    821.1935   9    257.3500   0
 218.7835   08   05  18.804    486.0535   9    401.6780   0
 218.7881   08   05  18.914    427.4767   9    338.8674   0
 218.7927   08   05  19.024    865.0143   9    235.4182   0
 218.7973   08   05  19.134    559.8335   9    294.4411   0
 218.8018   08   05  19.244    184.8971   9    219.3999   0
 218.8064   08   05  19.354    704.5988   9    307.2186   0
 218.8110   08   05  19.464    873.6220   9    238.7285   0
 218.8156   08   05  19.574   1034.8200   9    348.2408   0
 218.8202   08   05  19.684   1059.7487   9    250.7145   0
 218.8248   08   05  19.794    344.0830   9    375.2736   0
 218.8293   08   05  19.904    -95.6904   9    540.7374   0
 218.8339   08   05  20.014    261.8071   9    277.2296   0
 218.8385   08   05  20.124     87.5299   9    416.1812   0
 218.8431   08   05  20.234    804.8724   9    335.3783   0
 218.8477   08   05  20.344   -137.2755   9    454.2318   0
 218.8523   08   05  20.454   -438.6555   9    378.9460   0
 218.8568   08   05  20.564      9.8373   9    159.6017   0
 218.8614   08   05  20.674    448.6046   9    459.4225   0
 218.8660   08   05  20.784    700.9098   9    216.3254   0
 218.8706   08   05  20.894    233.7484   9    228.1900   0
 218.8752   08   05  21.004    142.1941   9    365.5223   0
 218.8798   08   05  21.114   1144.8193   9    280.7342   0
 218.8843   08   05  21.224    943.3776   9    430.8662   0
 218.8889   08   05  21.334    572.3537   9    245.4991   0
 218.8935   08   05  21.444    768.7650   9    230.3248   0
 218.8981   08   05  21.554   1184.0568   9    289.1347   0
 218.9027   08   05  21.664   1484.4307   9    428.4275   0
 218.9073   08   05  21.774    875.5224   9    402.4442   0
 218.9118   08   05  21.884    431.9482   9    356.2555   0
 218.9164   08   05  21.994    983.6212   9    307.7570   0
 218.9210   08   05  22.104    738.4705   9    375.3716   0
 218.9256   08   05  22.214   1025.5416   9    300.6108   0
 218.9302   08   05  22.324    856.9656   9    341.9038   0
 218.9348   08   05  22.434   1352.5211   9    314.6235   0
 218.9393   08   05  22.544    967.5237   9    398.9419   0
 218.9439   08   05  22.654    877.3110   9    385.5796   0
 218.9485   08   05  22.764    474.3158   9    258.8823   0
 218.9531   08   05  22.874    706.2756   9    195.5372   0
 218.9577   08   05  22.984    607.4551   9    500.4171   0
 218.9623   08   05  23.094    698.5622   9    370.4994   0
 218.9668   08   05  23.204    398.1883   9    321.6988   0
 218.9714   08   05  23.314    785.9803   9    351.3969   0
 218.9760   08   05  23.424    768.2060   9    427.3795   0
 218.9806   08   05  23.534    385.3327   9    424.9158   0
 218.9852   08   05  23.644    760.8280   9    137.0546   0
 218.9898   08   05  23.754    625.2294   9    427.1726   0
 218.9943   08   05  23.864   -446.2571   9    665.3895   0
 218.9989   08   05  23.974    491.6429   9    492.2368   0
 219.0035   08   06   0.084    319.2661   9    424.4004   0
 219.0081   08   06   0.194    945.9487   9    611.4721   0
 219.0127   08   06   0.304    708.5113   9    384.3430   0
 219.0173   08   06   0.414   1559.8875   9    501.4503   0
 219.0218   08   06   0.524     86.3002   9    452.5192   0
 219.0264   08   06   0.634    577.3842   9    384.8434   0
 219.0310   08   06   0.744    677.4343   9    784.8719   0
 219.0356   08   06   0.854   1143.1424   9    643.0144   0
 219.0402   08   06   0.964    989.6577   9    373.4150   0
 219.0448   08   06   1.074   -417.4158   9    426.5955   0
 219.0493   08   06   1.184    836.6202   9    591.4893   0
 219.0539   08   06   1.294    568.1058   9    343.1157   0
 219.0585   08   06   1.404   1833.0970   9    641.7223   0
 219.0631   08   06   1.514    599.0710   9    387.5048   0
 219.0677   08   06   1.624    839.1913   9    406.9309   0
 219.0723   08   06   1.734    314.6828   9    580.7502   0
 219.0768   08   06   1.844    723.8263   9    488.0102   0
 219.0814   08   06   1.954   1097.3094   9    356.9680   0
 219.0860   08   06   2.064    473.1979   9    322.2986   0
 219.0906   08   06   2.174    393.2696   9    542.2317   0
 219.0952   08   06   2.284    738.2469   9    256.7176   0
 219.0998   08   06   2.394     90.5481   9    160.6002   0
 219.1043   08   06   2.504    163.4338   9    252.6243   0
 219.1089   08   06   2.614    187.2446   9    132.9919   0
 219.1135   08   06   2.724    265.6079   9    399.7621   0
 219.1181   08   06   2.834    111.4525   9    357.3542   0
 219.1227   08   06   2.944    257.3356   9    266.7116   0
 219.1273   08   06   3.054    466.4907   9    347.5788   0
 219.1318   08   06   3.164    163.2102   9    230.8395   0
 219.1364   08   06   3.274    464.4785   9    172.8332   0
 219.1410   08   06   3.384    309.5405   9    408.9499   0
 219.1456   08   06   3.494    123.5256   9    360.3926   0
 219.1502   08   06   3.604    532.6691   9    175.4705   0
 219.1548   08   06   3.714    529.4272   9    218.0735   0
 219.1593   08   06   3.824    699.7919   9    433.4375   0
 219.1639   08   06   3.934    467.6085   9    374.7286   0
 219.1685   08   06   4.044    371.3592   9    360.5783   0
 219.1731   08   06   4.154    528.1975   9    225.0289   0
 219.1777   08   06   4.264    620.6461   9    305.8566   0
 219.1823   08   06   4.374    460.7895   9    524.1998   0
 219.1868   08   06   4.484     99.9383   9    178.3586   0
 219.1914   08   06   4.594    141.5234   9    265.5674   0
 219.1960   08   06   4.704    271.1973   9    425.8324   0
 219.2006   08   06   4.814    800.1774   9    316.7083   0
 219.2052   08   06   4.924    298.2500   9    227.8012   0
 219.2098   08   06   5.034   -152.4786   9    179.1247   0
 219.2143   08   06   5.144    472.3036   9    326.0456   0
 219.2189   08   06   5.254    349.3370   9    361.7045   0
 219.2235   08   06   5.364    557.4860   9    487.2937   0
 219.2281   08   06   5.474   1320.3262   9    447.6780   0
 219.2327   08   06   5.584    787.6571   9    239.6309   0
 219.2373   08   06   5.694    181.2081   9    431.8830   0
 219.2418   08   06   5.804    988.5399   9    237.6125   0
 219.2464   08   06   5.914    365.9934   9    229.2611   0
 219.2510   08   06   6.024    -78.8104   9    297.6864   0
 219.2556   08   06   6.134    875.0752   9    244.9112   0
 219.2602   08   06   6.244    554.8030   9    189.4652   0
 219.2648   08   06   6.354    609.4673   9    270.7389   0
 219.2693   08   06   6.464    375.9425   9    466.2730   0
 219.2739   08   06   6.574   1237.1560   9    429.6703   0
 219.2785   08   06   6.684    404.8956   9    281.3529   0
 219.2831   08   06   6.794    528.8683   9    288.3080   0
 219.2877   08   06   6.904    606.4490   9    341.9517   0
 219.2923   08   06   7.014    476.8869   9    210.7713   0
 219.2968   08   06   7.124    641.7740   9    301.1931   0
 219.3014   08   06   7.234    527.8622   9    387.5581   0
 219.3060   08   06   7.344   1126.1507   9    583.2731   0
 219.3106   08   06   7.454    150.0193   9    377.9503   0
 219.3152   08   06   7.564    303.0568   9    237.8974   0
 219.3198   08   06   7.674    844.2218   9    482.0649   0
 219.3243   08   06   7.784     84.3998   9    227.1439   0
 219.3289   08   06   7.894    645.4630   9    415.8152   0
 219.3335   08   06   8.004      7.7134   9    293.8682   0
 219.3381   08   06   8.114   -637.5260   9    401.7446   0
 219.3427   08   06   8.224   -231.4008   9    272.1589   0
 219.3472   08   06   8.334    505.6164   9    426.1503   0
 219.3518   08   06   8.444    479.6816   9    332.0579   0
 219.3564   08   06   8.554    457.5476   9    222.4467   0
 219.3610   08   06   8.664   -238.4435   9    133.0689   0
 219.3656   08   06   8.774    376.6132   9    273.7154   0
 219.3702   08   06   8.884    520.3724   9    277.2590   0
 219.3748   08   06   8.994    473.9804   9    352.0669   0
 219.3793   08   06   9.104   -132.4686   9    310.8818   0
 219.3839   08   06   9.214   1045.4399   9    384.4228   0
 219.3885   08   06   9.324    470.8504   9    271.8579   0
 219.4413   08   06  10.592    977.8090   9    409.8450   0
 219.4459   08   06  10.702    109.2057   9    227.3471   0
 219.4505   08   06  10.812    329.8697   9    224.0744   0
 219.4551   08   06  10.922   1259.9414   9    498.8458   0
 219.4597   08   06  11.032   1356.7032   9    396.9406   0
 219.4643   08   06  11.142    202.1055   9    275.0288   0
 219.4688   08   06  11.252    836.6354   9    297.1442   0
 219.4734   08   06  11.362    546.9937   9    298.8586   0
 219.4780   08   06  11.472    450.8756   9    255.5464   0
 219.4826   08   06  11.582    388.9781   9    228.5004   0
 219.4872   08   06  11.692    556.6485   9    301.2387   0
 219.4918   08   06  11.802    -84.5325   9    344.8856   0
 219.4963   08   06  11.912    545.8137   9    282.2603   0
 219.5009   08   06  12.022    -76.9160   9    477.1884   0
 219.5055   08   06  12.132     46.4499   9    357.6937   0
 219.5101   08   06  12.242    919.0224   9    238.1470   0
 219.5147   08   06  12.352    395.3073   9    272.8141   0
 219.5193   08   06  12.462    664.6741   9    264.0363   0
 219.5238   08   06  12.572     80.1342   9    207.1480   0
 219.5284   08   06  12.682     62.0048   9    232.4082   0
 219.5330   08   06  12.792    214.1203   9    230.8268   0
 219.5376   08   06  12.902    123.9023   9    215.1719   0
 219.5422   08   06  13.012    490.7818   9    195.9254   0
 219.5468   08   06  13.122    712.0895   9    208.5386   0
 219.5513   08   06  13.232    702.3275   9    316.3343   0
 219.5559   08   06  13.342    467.6105   9    187.0038   0
 219.5605   08   06  13.452     88.5016   9    244.5467   0
