25 1001
Beverley Allan and Hugh Coe
 University of East Anglia, Norwich, UK 
 Differential Optical Absorption Spectrometer, Mace Head, Eire 
ACSOE OXICOA EASE'96
1 1
1996 08 04  1997 01 03
0
Time in fractional Julian Day
3
1.0 1.0 1
999 999 999
NITRATE RADICALS (pptv)
ERROR FROM ANALYSIS (pptv)
ERROR FLAG
3
This is NO3 data obtained in the MBL.   
Missing data markers represent poor raw data / hardware problems.   
Note large gap in data during daylight hours due to NO3 NOT being measured during the day.   
5   
THIS-FILE-NAME=mh960804.n31   
THIS-FILE-VERSION=1   
THIS-FILE-ENDS=1996 08 04   
E-MAIL-CONTACT=b.allan@uea.ac.uk   
Jday NO3  Analysis Error Error Flag
217	2.35	0.49	0
217.0069	3.67	0.45	0
217.0139	1.18	0.48	0
217.0208	999	999	3
217.0278	999	999	3
217.0347	999	999	3
217.0417	999	999	3
217.0486	999	999	3
217.0556	999	999	3
217.0625	999	999	3
217.0694	999	999	3
217.0764	999	999	3
217.0833	999	999	3
217.0903	999	999	3
217.0972	0.1	0.46	0
217.1042	0.34	0.45	0
217.1111	0.59	0.48	0
217.1181	-0.06	0.44	0
217.125	0.65	0.44	0
217.1319	0.52	0.42	0
217.1389	0.53	0.45	0
217.1458	0.65	0.39	0
217.1528	1.28	0.38	0
217.1597	0.94	0.35	0
217.1667	0.96	0.36	0
217.1736	1.01	0.36	0
217.1806	4.16	0.35	0
217.1875	5.2	0.37	0
217.1944	2.24	0.28	0
217.2014	1.01	0.23	0
217.2083	0.41	0.22	0
217.2153	0.27	0.22	0
217.2222	-0.11	0.18	0
217.2292	0.11	0.16	0
217.2361	-0.24	0.1	0
217.2431	-0.18	0.1	0
217.25	-0.06	0.08	0
217.2569	0	0	0
217.2639	0.54	0.12	0
217.2708	1.07	0.11	0
217.2778	1.45	0.17	0
217.2847	0.45	0.2	0
217.2917	0.15	0.22	0
217.2986	0.33	0.25	0
217.3056	0.04	0.23	0
217.3125	-0.3	0.24	0
217.3194	-0.02	0.23	0
217.3264	0.48	0.26	0
217.3333	1.35	0.25	0
217.3403	0.38	0.25	0
217.3472	0.12	0.32	0
217.3542	-0.49	0.33	0
217.7739	-0.72	0.4	0
217.7808	-0.82	0.33	0
217.7878	-1.21	0.34	0
217.7947	-0.97	0.33	0
217.8016	-0.01	0.28	0
217.8086	-0.66	0.2	0
217.8155	-0.67	0.17	0
217.8225	0.33	0.11	0
217.8294	0	0	0
217.8364	-0.35	0.12	0
217.8433	0.24	0.14	0
217.8503	-0.01	0.23	0
217.8572	-0.42	0.33	0
217.8641	1.3	0.35	0
217.8711	0.89	0.3	0
217.878	1.24	0.31	0
217.885	0.96	0.35	0
217.8919	1.38	0.38	0
217.8989	1.69	0.5	0
217.9058	1.04	0.57	0
217.9128	1.35	0.6	0
217.9197	0.69	0.63	0
217.9266	0.44	0.69	0
217.9336	1.16	0.66	0
217.9405	1.03	0.75	0
217.9475	0.33	0.78	0
217.9544	0.45	0.78	0
217.9621	1.16	0.74	0
217.969	1.53	0.72	0
217.9759	0.64	0.68	0
217.9829	1.05	0.75	0
217.9898	0.82	0.71	0
217.9968	0.72	0.78	0
