25 1001
Beverley Allan and Hugh Coe
 University of East Anglia, Norwich, UK 
 Differential Optical Absorption Spectrometer, Mace Head, Eire 
ACSOE OXICOA EASE'96
1 1
1996 07 18  1997 01 03
0
Time in fractional Julian Day
3
1.0 1.0 1
999 999 999
NITRATE RADICALS (pptv)
ERROR FROM ANALYSIS (pptv)
ERROR FLAG
3
This is NO3 data obtained in the MBL.   
Missing data markers represent poor raw data / hardware problems.   
Note large gap in data during daylight hours due to NO3 NOT being measured during the day.   
5   
THIS-FILE-NAME=mh960718.n31   
THIS-FILE-VERSION=1   
THIS-FILE-ENDS=1996 07 18   
E-MAIL-CONTACT=b.allan@uea.ac.uk   
Jday NO3  Analysis Error Error Flag
200.0063	17.09	0.59	0
200.0132	14.39	0.61	0
200.0201	13.47	0.64	0
200.0271	12.05	0.67	0
200.034	10.41	0.72	0
200.041	9.93	0.7	0
200.0479	8.99	0.75	0
200.0549	6.39	0.75	0
200.0618	4.89	0.75	0
200.0688	4.86	0.7	0
200.0757	7.33	0.61	0
200.0826	7.61	0.58	0
200.0896	7.16	0.55	0
200.0965	7.38	0.53	0
200.1042	8.44	0.54	0
200.1111	8.45	0.52	0
200.1181	6.24	0.48	0
200.125	5.32	0.49	0
200.1319	6.11	0.51	0
200.1389	4.25	0.52	0
200.1458	3.22	0.58	0
200.1528	2.98	0.6	0
200.1597	2.11	0.59	0
200.1667	1.12	0.52	0
200.1736	2.11	0.44	0
200.1806	4.83	0.51	0
200.1875	4.84	0.49	0
200.1944	2.56	0.49	0
200.2014	0.74	0.29	0
200.2083	2.01	0.46	0
200.2153	2.29	0.44	0
200.2222	1.74	0.42	0
200.2292	0.68	0.08	0
200.2361	0	0	0
200.2431	-0.86	0.09	0
200.25	-0.41	0.14	0
200.2569	-0.67	0.15	0
200.2639	-0.91	0.19	0
200.2708	-0.19	0.23	0
200.2778	0.79	0.28	0
200.2847	-0.68	0.26	0
200.2917	-0.58	0.24	0
200.2986	-0.52	0.27	0
200.3056	-0.23	0.28	0
200.3125	0.49	0.26	0
200.3194	0.02	0.24	0
200.3264	1.19	0.22	0
200.3333	0.96	0.22	0
200.3403	0.92	0.24	0
200.3472	1.02	0.26	0
200.3542	1.15	0.3	0
200.85	0	0	0
200.8569	4.54	0.53	0
200.8639	1.84	0.45	0
200.8708	2.59	0.5	0
200.8778	2.93	0.54	0
200.8847	6.09	1.44	0
200.8917	10.36	0.63	0
200.8986	6.51	1.58	0
200.9056	7.46	1.56	0
200.9125	10.42	1.56	0
200.9194	14.29	1.6	0
200.9264	18.7	0.65	0
200.9333	22.7	1.74	0
200.9403	30.35	1	0
200.9472	41.04	1.16	0
200.9542	45.73	1.78	0
200.9611	45.21	1.68	0
200.9681	40.38	1.63	0
200.975	43.41	1.33	0
200.9819	38.97	1.61	0
200.9889	34.43	1.62	0
200.9958	25.47	1.61	0
